File: Probe_Opt_wasatch_Powder/_data.csv
Wavenumber,Intensities
282.29,8083.4
284.39,8103.4
286.49,8175.6
288.59,8164.8
290.7,8134.0
292.79,8212.8
294.89,8207.2
296.99,8233.4
299.09,8270.2
301.18,8267.4
303.28,8309.4
305.37,8279.4
307.47,8268.8
309.56,8303.2
311.65,8303.6
313.74,8288.8
315.83,8339.6
317.92,8288.6
320.0,8283.6
322.09,8292.6
324.18,8319.2
326.26,8313.6
328.34,8348.4
330.43,8398.2
332.51,8493.4
334.59,8562.8
336.67,8614.4
338.75,8754.8
340.83,8961.4
342.9,9129.6
344.98,9291.0
347.05,9502.4
349.13,9653.6
351.2,9762.0
353.27,9798.8
355.35,9768.0
357.42,9672.0
359.49,9483.2
361.55,9319.8
363.62,9069.2
365.69,8894.6
367.75,8676.6
369.82,8490.8
371.88,8416.0
373.95,8394.8
376.01,8467.6
378.07,8670.8
380.13,8622.4
382.19,8464.8
384.25,8277.8
386.31,8173.8
388.36,8116.0
390.42,8142.0
392.47,8099.2
394.53,8113.2
396.58,8212.6
398.63,8265.0
400.68,8329.8
402.73,8407.6
404.78,8476.2
406.83,8515.8
408.87,8629.6
410.92,8872.4
412.97,9435.6
415.01,10576.0
417.05,11742.8
419.1,11841.6
421.14,10885.0
423.18,9984.6
425.22,9496.2
427.25,9365.6
429.29,9416.4
431.33,9385.8
433.36,9341.6
435.4,9283.6
437.43,9188.4
439.47,9110.2
441.5,9103.4
443.53,9091.6
445.56,9140.0
447.59,9263.0
449.62,9237.8
451.64,9166.8
453.67,8979.6
455.7,8886.8
457.72,8807.8
459.74,8685.0
461.77,8673.0
463.79,8565.8
465.81,8502.4
467.83,8434.0
469.85,8448.8
471.86,8425.2
473.88,8327.2
475.9,8357.6
477.91,8236.2
479.93,8189.0
481.94,8103.6
483.95,8007.0
485.96,7931.8
487.97,7812.4
489.98,7776.0
491.99,7670.0
494.0,7657.4
496.0,7609.8
498.01,7586.2
500.01,7561.2
502.02,7603.2
504.02,7608.2
506.02,7620.6
508.02,7689.4
510.02,7713.8
512.02,7740.4
514.02,7743.2
516.01,7710.4
518.01,7694.6
520.01,7662.2
522.0,7580.0
523.99,7517.0
525.99,7449.4
527.98,7438.4
529.97,7414.8
531.96,7436.2
533.94,7429.0
535.93,7448.2
537.92,7400.0
539.9,7414.4
541.89,7371.6
543.87,7330.4
545.85,7245.2
547.84,7189.4
549.82,7174.0
551.8,7171.6
553.78,7152.2
555.75,7120.8
557.73,7119.8
559.71,7084.4
561.68,7131.4
563.66,7156.2
565.63,7147.2
567.6,7168.4
569.57,7195.8
571.54,7277.6
573.51,7407.6
575.48,7603.6
577.45,7701.2
579.41,7605.2
581.38,7360.6
583.34,7186.8
585.31,7027.4
587.27,7022.8
589.23,6981.2
591.19,6978.8
593.15,6937.6
595.11,6913.0
597.07,6889.6
599.03,6854.4
600.98,6850.2
602.94,6789.2
604.89,6779.2
606.84,6684.2
608.8,6663.6
610.75,6635.8
612.7,6599.6
614.65,6595.4
616.6,6555.6
618.54,6637.6
620.49,6700.8
622.43,6730.4
624.38,6706.0
626.32,6605.0
628.27,6578.4
630.21,6558.2
632.15,6527.4
634.09,6523.2
636.03,6555.2
637.96,6585.4
639.9,6666.4
641.84,6837.4
643.77,6916.6
645.71,6928.4
647.64,6909.4
649.57,6825.6
651.5,6775.6
653.43,6719.8
655.36,6648.8
657.29,6605.2
659.22,6536.8
661.14,6486.8
663.07,6445.4
664.99,6426.6
666.92,6413.0
668.84,6372.0
670.76,6365.2
672.68,6326.4
674.6,6271.2
676.52,6242.2
678.44,6213.0
680.35,6218.6
682.27,6192.6
684.19,6200.6
686.1,6183.6
688.01,6187.2
689.92,6199.4
691.83,6180.2
693.74,6228.4
695.65,6261.6
697.56,6299.6
699.47,6364.4
701.38,6371.8
703.28,6413.0
705.19,6429.4
707.09,6399.8
708.99,6428.0
710.89,6410.4
712.79,6387.8
714.69,6337.8
716.59,6302.2
718.49,6278.2
720.39,6234.8
722.28,6186.0
724.18,6162.2
726.07,6132.4
727.96,6106.8
729.85,6109.0
731.74,6136.8
733.63,6191.0
735.52,6226.8
737.41,6281.8
739.3,6374.2
741.18,6502.4
743.07,6708.4
744.95,6976.4
746.84,7183.8
748.72,7408.4
750.6,7550.2
752.48,7430.4
754.36,7275.6
756.24,7056.2
758.12,6858.0
759.99,6718.2
761.87,6545.8
763.74,6434.8
765.62,6355.2
767.49,6261.8
769.36,6193.6
771.23,6146.2
773.1,6116.2
774.97,6028.0
776.84,5990.2
778.7,5955.2
780.57,5929.2
782.44,5870.2
784.3,5867.4
786.16,5827.4
788.02,5810.2
789.89,5780.8
791.75,5781.8
793.6,5731.2
795.46,5736.2
797.32,5721.2
799.18,5690.8
801.03,5648.8
802.89,5640.6
804.74,5673.4
806.59,5668.6
808.44,5684.8
810.29,5643.2
812.14,5681.2
813.99,5666.8
815.84,5718.8
817.69,5712.6
819.53,5730.0
821.38,5804.0
823.22,5905.6
825.06,5901.4
826.9,5982.2
828.75,6059.2
830.59,6097.8
832.42,6125.0
834.26,6164.8
836.1,6203.4
837.93,6241.4
839.77,6335.0
841.6,6428.2
843.44,6496.8
845.27,6659.0
847.1,6709.0
848.93,6820.0
850.76,6948.4
852.59,6980.0
854.42,7038.6
856.24,7025.4
858.07,7056.2
859.89,7041.8
861.72,7009.8
863.54,7006.4
865.36,6934.6
867.18,6976.6
869.0,6993.8
870.82,7016.6
872.64,7059.6
874.45,7121.4
876.27,7169.2
878.08,7198.8
879.9,7177.6
881.71,7146.6
883.52,7024.2
885.33,6942.0
887.14,6898.8
888.95,6852.8
890.76,6844.4
892.57,6797.2
894.37,6770.4
896.18,6743.2
897.98,6672.4
899.79,6633.6
901.59,6571.6
903.39,6542.8
905.19,6502.6
906.99,6434.2
908.79,6411.4
910.58,6394.2
912.38,6343.6
914.18,6354.0
915.97,6362.0
917.76,6324.0
919.56,6317.6
921.35,6280.0
923.14,6241.4
924.93,6186.0
926.72,6154.2
928.51,6109.8
930.29,6116.0
932.08,6078.8
933.86,6107.4
935.65,6127.2
937.43,6174.6
939.21,6214.0
940.99,6280.4
942.77,6307.6
944.55,6349.2
946.33,6371.2
948.11,6402.4
949.88,6393.8
951.66,6392.6
953.43,6290.2
955.21,6241.0
956.98,6204.6
958.75,6150.0
960.52,6113.0
962.29,6024.0
964.06,5993.4
965.82,5959.4
967.59,5891.4
969.36,5863.0
971.12,5862.4
972.88,5831.0
974.65,5897.2
976.41,5854.0
978.17,5871.6
979.93,5921.4
981.69,5914.2
983.45,5919.8
985.2,5943.8
986.96,5967.8
988.71,5975.6
990.47,6014.2
992.22,6032.4
993.97,6042.2
995.72,6101.0
997.47,6211.6
999.22,6404.2
1000.97,6708.8
1002.72,6927.0
1004.46,6875.4
1006.21,6706.6
1007.95,6482.4
1009.7,6399.4
1011.44,6343.0
1013.18,6347.4
1014.92,6363.0
1016.66,6366.2
1018.4,6351.4
1020.13,6353.6
1021.87,6340.8
1023.61,6319.4
1025.34,6309.0
1027.07,6304.6
1028.81,6371.0
1030.54,6391.6
1032.27,6419.8
1034.0,6454.0
1035.73,6435.8
1037.46,6439.0
1039.18,6443.2
1040.91,6399.2
1042.63,6461.4
1044.36,6497.0
1046.08,6533.6
1047.8,6572.2
1049.52,6602.2
1051.24,6623.4
1052.96,6668.6
1054.68,6681.2
1056.4,6725.8
1058.11,6768.2
1059.83,6746.8
1061.54,6780.6
1063.26,6882.8
1064.97,6909.0
1066.68,6989.8
1068.39,7022.4
1070.1,7113.2
1071.81,7197.0
1073.51,7233.0
1075.22,7344.6
1076.93,7377.4
1078.63,7457.2
1080.33,7493.0
1082.04,7547.6
1083.74,7495.8
1085.44,7452.6
1087.14,7395.8
1088.84,7291.8
1090.53,7202.6
1092.23,7113.2
1093.93,7069.2
1095.62,7009.0
1097.32,6964.8
1099.01,6955.4
1100.7,6929.6
1102.39,6915.8
1104.08,6903.2
1105.77,6942.6
1107.46,6955.4
1109.15,7018.2
1110.83,7135.2
1112.52,7210.2
1114.2,7268.6
1115.88,7354.6
1117.57,7358.6
1119.25,7364.2
1120.93,7341.6
1122.61,7345.6
1124.28,7316.8
1125.96,7154.6
1127.64,7036.4
1129.31,6852.8
1130.99,6675.2
1132.66,6501.2
1134.33,6362.2
1136.01,6268.0
1137.68,6116.6
1139.35,6099.6
1141.01,6052.2
1142.68,5977.0
1144.35,5978.6
1146.01,5967.2
1147.68,5950.4
1149.34,5934.4
1151.01,5932.4
1152.67,5933.6
1154.33,5837.8
1155.99,5769.0
1157.65,5658.8
1159.3,5552.6
1160.96,5414.6
1162.62,5303.4
1164.27,5186.6
1165.93,5085.4
1167.58,5022.6
1169.23,4981.4
1170.88,4906.4
1172.53,4852.2
1174.18,4768.8
1175.83,4736.2
1177.48,4654.2
1179.12,4576.2
1180.77,4523.6
1182.41,4527.8
1184.06,4472.0
1185.7,4468.8
1187.34,4444.6
1188.98,4451.2
1190.62,4469.6
1192.26,4482.2
1193.9,4513.4
1195.53,4540.0
1197.17,4564.4
1198.8,4556.4
1200.44,4636.8
1202.07,4672.6
1203.7,4743.8
1205.33,4780.4
1206.96,4784.0
1208.59,4818.8
1210.22,4788.0
1211.85,4824.8
1213.47,4768.4
1215.1,4748.2
1216.72,4736.2
1218.34,4796.0
1219.96,4780.2
1221.59,4799.0
1223.21,4891.2
1224.83,4922.2
1226.44,4971.8
1228.06,4994.0
1229.68,5075.0
1231.29,5125.2
1232.91,5170.6
1234.52,5227.4
1236.13,5257.2
1237.74,5330.8
1239.35,5358.8
1240.96,5400.8
1242.57,5440.0
1244.18,5493.2
1245.78,5557.8
1247.39,5565.0
1248.99,5629.2
1250.6,5705.8
1252.2,5685.6
1253.8,5746.0
1255.4,5773.0
1257.0,5812.6
1258.6,5843.0
1260.2,5865.4
1261.8,5878.0
1263.39,5847.0
1264.99,5814.0
1266.58,5760.6
1268.17,5727.6
1269.77,5638.2
1271.36,5592.2
1272.95,5512.0
1274.54,5420.0
1276.12,5344.0
1277.71,5247.4
1279.3,5210.2
1280.88,5161.4
1282.47,5122.0
1284.05,5043.0
1285.63,4992.2
1287.21,4968.0
1288.79,4969.4
1290.37,4918.8
1291.95,4912.2
1293.53,4924.8
1295.1,4916.2
1296.68,4939.6
1298.25,4987.0
1299.83,5004.4
1301.4,5042.2
1302.97,5100.6
1304.54,5143.2
1306.11,5180.2
1307.68,5221.4
1309.25,5248.2
1310.81,5278.6
1312.38,5331.4
1313.94,5370.6
1315.51,5375.0
1317.07,5405.0
1318.63,5396.8
1320.19,5436.4
1321.75,5441.2
1323.31,5413.6
1324.87,5424.2
1326.43,5437.8
1327.98,5406.6
1329.54,5421.2
1331.09,5443.2
1332.64,5459.0
1334.2,5465.0
1335.75,5452.8
1337.3,5471.4
1338.85,5447.2
1340.4,5431.8
1341.94,5420.6
1343.49,5394.8
1345.03,5342.8
1346.58,5278.2
1348.12,5200.0
1349.66,5137.8
1351.21,5093.0
1352.75,5048.8
1354.29,4965.6
1355.82,4958.0
1357.36,4904.0
1358.9,4903.4
1360.43,4892.6
1361.97,4817.6
1363.5,4830.6
1365.03,4828.0
1366.57,4774.2
1368.1,4815.2
1369.63,4774.8
1371.16,4742.4
1372.68,4719.6
1374.21,4700.6
1375.74,4626.0
1377.26,4607.0
1378.78,4577.0
1380.31,4536.8
1381.83,4511.6
1383.35,4478.0
1384.87,4481.4
1386.39,4418.8
1387.91,4432.2
1389.42,4371.6
1390.94,4347.4
1392.46,4307.2
1393.97,4272.0
1395.48,4236.8
1397.0,4197.2
1398.51,4201.6
1400.02,4173.6
1401.53,4129.4
1403.04,4099.8
1404.54,4107.2
1406.05,4064.2
1407.55,4079.2
1409.06,4055.6
1410.56,4064.6
1412.06,4044.4
1413.57,4065.0
1415.07,4014.8
1416.57,4015.2
1418.07,4014.0
1419.56,4026.8
1421.06,4020.2
1422.56,3988.4
1424.05,3991.0
1425.54,3981.4
1427.04,3967.0
1428.53,3923.2
1430.02,3958.2
1431.51,3974.4
1433.0,3990.6
1434.49,4047.4
1435.97,4083.8
1437.46,4113.4
1438.94,4214.4
1440.43,4272.8
1441.91,4328.6
1443.39,4402.8
1444.88,4479.4
1446.36,4532.0
1447.83,4609.4
1449.31,4671.0
1450.79,4659.6
1452.27,4690.2
1453.74,4672.6
1455.22,4611.8
1456.69,4620.0
1458.16,4597.2
1459.63,4601.0
1461.1,4582.6
1462.57,4568.4
1464.04,4498.6
1465.51,4399.0
1466.98,4322.8
1468.44,4167.8
1469.91,4058.0
1471.37,3924.0
1472.83,3762.4
1474.3,3611.6
1475.76,3484.8
1477.22,3341.2
1478.67,3231.0
1480.13,3100.6
1481.59,2989.6
1483.05,2893.2
1484.5,2826.8
1485.95,2744.4
1487.41,2673.8
1488.86,2611.4
1490.31,2568.2
1491.76,2534.2
1493.21,2499.8
1494.66,2485.8
1496.11,2443.2
1497.55,2435.4
1499.0,2391.4
1500.44,2346.6
1501.88,2348.0
1503.33,2341.8
1504.77,2315.6
1506.21,2284.2
1507.65,2289.6
1509.09,2275.8
1510.52,2264.8
1511.96,2240.4
1513.4,2228.0
1514.83,2226.8
1516.26,2212.6
1517.7,2188.8
1519.13,2191.0
1520.56,2197.4
1521.99,2165.6
1523.42,2170.2
1524.85,2148.0
1526.27,2136.8
1527.7,2127.6
1529.12,2118.8
1530.55,2133.0
1531.97,2099.0
1533.39,2118.4
1534.81,2086.8
1536.23,2105.8
1537.65,2084.2
1539.07,2096.0
1540.49,2085.4
1541.9,2089.4
1543.32,2099.6
1544.73,2098.8
1546.15,2099.6
1547.56,2102.0
1548.97,2099.6
1550.38,2119.8
1551.79,2095.0
1553.2,2116.8
1554.61,2103.6
1556.01,2075.2
1557.42,2073.2
1558.82,2057.4
1560.22,2030.4
1561.63,2007.0
1563.03,2001.0
1564.43,1984.6
1565.83,1968.4
1567.23,1977.8
1568.63,1945.2
1570.02,1956.8
1571.42,1974.4
1572.81,1954.4
1574.21,1945.0
1575.6,1948.4
1576.99,1958.4
1578.38,1965.4
1579.77,1968.4
1581.16,1969.6
1582.55,1976.6
1583.94,1992.6
1585.32,1996.8
1586.71,1969.0
1588.09,1977.4
1589.47,1959.2
1590.86,1947.2
1592.24,1978.2
1593.62,1970.6
1595.0,1975.8
1596.38,1991.6
1597.75,1999.8
1599.13,2017.4
1600.51,2032.6
1601.88,2055.8
1603.25,2076.0
1604.63,2075.2
1606.0,2098.0
1607.37,2100.0
1608.74,2105.6
1610.11,2079.2
1611.47,2102.4
1612.84,2071.6
1614.21,2081.2
1615.57,2113.6
1616.93,2085.8
1618.3,2079.8
1619.66,2060.8
1621.02,2069.6
1622.38,2029.0
1623.74,2003.2
1625.1,1994.2
1626.45,1998.0
1627.81,1975.2
1629.16,1985.6
1630.52,1982.0
1631.87,1988.6
1633.22,1980.0
1634.57,1989.6
1635.92,2010.8
1637.27,2011.8
1638.62,2036.2
1639.97,2020.4
1641.32,2035.8
1642.66,2046.6
1644.01,2063.2
1645.35,2068.8
1646.69,2109.8
1648.03,2109.0
1649.37,2123.2
1650.71,2168.2
1652.05,2174.6
1653.39,2192.4
1654.73,2210.4
1656.06,2223.6
1657.4,2235.8
1658.73,2239.6
1660.06,2238.4
1661.39,2217.0
1662.72,2249.0
1664.05,2234.8
1665.38,2231.2
1666.71,2209.0
1668.04,2208.6
1669.36,2209.2
1670.69,2169.6
1672.01,2136.0
1673.34,2140.8
1674.66,2089.0
1675.98,2084.8
1677.3,2067.0
1678.62,2004.0
1679.94,1976.0
1681.25,1944.8
1682.57,1904.4
1683.88,1892.6
1685.2,1843.2
1686.51,1809.2
1687.82,1777.8
1689.14,1739.0
1690.45,1695.6
1691.76,1663.4
1693.06,1617.2
1694.37,1596.2
1695.68,1561.4
1696.98,1529.6
1698.29,1514.0
1699.59,1478.6
1700.89,1449.6
1702.2,1432.8
1703.5,1410.8
1704.8,1389.0
1706.1,1360.6
1707.39,1342.8
1708.69,1334.4
1709.99,1330.4
1711.28,1320.4
1712.57,1302.8
1713.87,1285.8
1715.16,1294.0
1716.45,1269.0
1717.74,1280.2
1719.03,1248.2
1720.32,1247.8
1721.6,1236.8
1722.89,1209.6
1724.18,1226.6
1725.46,1230.2
1726.74,1189.8
1728.03,1201.4
1729.31,1212.8
1730.59,1205.8
1731.87,1199.4
1733.15,1174.8
1734.42,1169.2
1735.7,1165.6
1736.97,1155.8
1738.25,1155.6
1739.52,1147.2
1740.79,1133.0
1742.07,1138.4
1743.34,1136.8
1744.61,1135.6
1745.88,1134.0
1747.14,1114.8
1748.41,1115.6
1749.68,1105.6
1750.94,1102.6
1752.2,1104.2
1753.47,1088.6
1754.73,1095.8
1755.99,1089.8
1757.25,1074.2
1758.51,1079.4
1759.77,1081.6
1761.02,1061.6
1762.28,1060.0
1763.54,1076.2
1764.79,1068.8
1766.04,1048.4
1767.29,1048.0
1768.55,1020.2
1769.8,1034.4
1771.05,1032.2
1772.29,1017.2
1773.54,1015.8
1774.79,1010.8
1776.03,1013.2
1777.28,988.0
1778.52,984.0
1779.76,999.2
1781.01,1000.0
1782.25,984.2
1783.49,991.0
1784.72,981.2
1785.96,966.4
1787.2,966.6
1788.43,971.8
1789.67,969.0
1790.9,961.8
1792.14,959.0
1793.37,946.2
1794.6,939.4
1795.83,935.6
1797.06,925.0
1798.28,924.0
1799.51,940.6
1800.74,919.4
1801.96,912.8
1803.19,919.4
1804.41,903.0
1805.63,913.8
1806.85,903.0
1808.07,886.2
1809.29,891.4
1810.51,884.8
1811.73,883.8
1812.94,891.4
1814.16,867.8
1815.37,889.2
1816.59,868.8
1817.8,853.4
1819.01,871.6
1820.22,867.8
1821.43,856.6
1822.64,848.0
1823.85,848.2
1825.05,830.0
1826.26,854.4
1827.46,830.6
1828.67,827.2
1829.87,829.6
1831.07,835.2
1832.27,830.2
1833.47,809.6
1834.67,811.0
1835.87,803.4
1837.07,811.8
1838.26,814.2
1839.46,801.8
1840.65,802.2
1841.85,807.2
1843.04,791.2
1844.23,799.4
1845.42,781.8
1846.61,787.0
1847.8,769.8
1848.98,792.0
1850.17,774.0
1851.35,775.4
1852.54,771.6
1853.72,777.8
1854.9,773.2
1856.09,775.4
1857.27,776.4
1858.45,761.0
1859.62,745.8
1860.8,748.0
1861.98,738.0
1863.15,747.2
1864.33,738.8
1865.5,749.4
1866.68,728.6
1867.85,749.0
1869.02,730.4
1870.19,715.2
1871.36,729.6
1872.52,732.8
1873.69,704.6
1874.86,731.8
1876.02,723.8
1877.19,708.6
1878.35,700.8
1879.51,714.6
1880.67,717.0
1881.83,709.0
1882.99,701.0
1884.15,700.8
1885.31,695.2
1886.46,687.0
1887.62,681.8
1888.77,689.4
1889.92,681.0
1891.08,679.2
1892.23,677.0
1893.38,664.2