File: mAb_dilution_wasatch_plastic/10% Raw+ 90% Buffer_data.csv
Wavenumber,Intensities
282.29,9031.67
284.39,8899.0
286.49,8713.0
288.59,8723.67
290.69,8457.67
292.79,8378.0
294.89,8198.33
296.99,8369.0
299.08,8323.67
301.18,8004.33
303.28,8117.67
305.37,8022.33
307.46,8209.0
309.55,8113.33
311.65,7953.0
313.74,7757.67
315.83,7926.0
317.91,7922.33
320.0,7964.33
322.09,7984.33
324.17,7782.0
326.26,8195.67
328.34,7895.0
330.42,8056.67
332.51,7903.33
334.59,7851.67
336.67,7915.0
338.75,7875.33
340.82,7813.33
342.9,7930.33
344.98,7821.0
347.05,7790.67
349.13,7827.67
351.2,7898.33
353.27,7898.33
355.34,7805.67
357.41,7811.0
359.48,7803.33
361.55,8070.33
363.62,7850.33
365.69,8034.67
367.75,7894.33
369.82,8119.67
371.88,8102.0
373.94,8294.33
376.01,8150.0
378.07,8265.67
380.13,8305.67
382.19,8236.33
384.24,8196.67
386.3,8456.67
388.36,8689.67
390.41,8300.67
392.47,8742.33
394.52,8568.67
396.58,8788.0
398.63,8898.0
400.68,8654.0
402.73,8697.0
404.78,8907.0
406.82,8998.0
408.87,8983.0
410.92,8777.67
412.96,8891.67
415.01,8648.33
417.05,8660.33
419.09,8380.67
421.13,8506.0
423.17,8395.67
425.21,8327.67
427.25,8345.0
429.29,8266.67
431.33,8169.67
433.36,8241.0
435.4,8372.33
437.43,8250.0
439.46,8021.67
441.5,8123.67
443.53,7828.67
445.56,7996.0
447.59,8119.67
449.61,7736.0
451.64,7853.67
453.67,7778.0
455.69,7908.67
457.72,7792.0
459.74,7751.67
461.76,7424.0
463.78,7772.0
465.81,7760.33
467.82,7590.67
469.84,7542.67
471.86,7269.33
473.88,7574.33
475.89,7647.33
477.91,7482.0
479.92,7418.67
481.94,7392.0
483.95,7499.67
485.96,7451.33
487.97,7485.67
489.98,7253.33
491.99,7264.0
493.99,7516.67
496.0,7441.67
498.01,7206.0
500.01,7074.33
502.01,7231.33
504.02,7150.0
506.02,6972.0
508.02,6896.0
510.02,7046.0
512.02,6977.33
514.02,6877.0
516.01,7151.33
518.01,7135.33
520.0,6775.67
522.0,7038.0
523.99,6892.0
525.98,6823.67
527.97,6871.33
529.96,7032.67
531.95,6903.67
533.94,6936.33
535.93,7044.0
537.92,7031.33
539.9,7073.0
541.89,7214.67
543.87,7064.67
545.85,7107.33
547.83,7050.0
549.81,6812.33
551.79,7037.67
553.77,7006.33
555.75,6918.67
557.73,6851.67
559.7,6803.67
561.68,6912.33
563.65,6811.0
565.63,6916.33
567.6,6570.0
569.57,6435.33
571.54,6626.33
573.51,6658.0
575.48,6499.67
577.44,6542.67
579.41,6522.67
581.38,6402.33
583.34,6279.67
585.3,6401.33
587.27,6320.33
589.23,6403.67
591.19,6444.33
593.15,6365.67
595.11,6420.0
597.07,6291.0
599.02,6370.67
600.98,6425.33
602.93,6707.33
604.89,6406.0
606.84,6427.33
608.79,6519.0
610.74,6636.67
612.7,7128.67
614.64,7642.67
616.59,8695.33
618.54,10376.33
620.49,11910.33
622.43,11647.0
624.38,9989.0
626.32,8268.0
628.26,7383.0
630.2,6775.67
632.15,6382.33
634.08,6316.0
636.02,6295.0
637.96,6135.0
639.9,6122.67
641.83,5924.0
643.77,5902.33
645.7,5831.67
647.64,5864.0
649.57,5683.33
651.5,5824.0
653.43,5745.67
655.36,5788.67
657.29,5765.67
659.21,5680.67
661.14,5813.0
663.07,5559.67
664.99,5676.0
666.91,5586.67
668.84,5644.0
670.76,5373.33
672.68,5505.0
674.6,5470.67
676.52,5554.67
678.43,5549.67
680.35,5457.0
682.27,5471.0
684.18,5311.33
686.1,5643.0
688.01,5531.67
689.92,5549.0
691.83,5464.33
693.74,5563.33
695.65,5701.67
697.56,5498.67
699.47,5691.0
701.37,5870.67
703.28,5632.67
705.18,5809.0
707.09,5978.33
708.99,5493.67
710.89,5848.0
712.79,5525.0
714.69,5399.67
716.59,5377.67
718.49,5341.67
720.38,5550.33
722.28,5435.33
724.17,5537.33
726.07,5635.0
727.96,5476.67
729.85,5673.0
731.74,5692.33
733.63,5772.0
735.52,5917.67
737.41,6284.67
739.3,6355.67
741.18,6622.33
743.07,6579.67
744.95,6432.67
746.83,6817.33
748.72,6743.0
750.6,6784.67
752.48,6969.0
754.36,7164.33
756.24,7386.0
758.11,7361.67
759.99,7382.0
761.87,7313.67
763.74,7432.67
765.61,7284.67
767.49,7331.33
769.36,6952.0
771.23,7245.0
773.1,6780.67
774.97,6701.33
776.83,6888.0
778.7,6688.33
780.57,6951.67
782.43,7093.33
784.3,7651.33
786.16,7973.0
788.02,8187.0
789.88,8715.0
791.74,8960.0
793.6,9331.33
795.46,9508.0
797.32,9385.33
799.17,9076.67
801.03,8576.33
802.88,8089.33
804.74,7719.67
806.59,7165.33
808.44,7158.0
810.29,6758.67
812.14,6439.0
813.99,6299.67
815.84,6032.67
817.68,5916.33
819.53,5726.67
821.37,5787.0
823.22,5805.33
825.06,5525.33
826.9,5431.33
828.74,5435.0
830.58,5543.0
832.42,5453.0
834.26,5643.0
836.1,5858.0
837.93,6110.0
839.77,5997.33
841.6,5902.33
843.43,5878.33
845.27,5972.0
847.1,5844.33
848.93,5722.0
850.76,5660.33
852.59,5456.67
854.41,5572.0
856.24,5560.0
858.06,5314.0
859.89,5461.67
861.71,5277.33
863.54,5316.33
865.36,5376.33
867.18,5184.67
869.0,5366.33
870.82,5305.33
872.63,5282.33
874.45,5259.67
876.27,5182.33
878.08,5198.33
879.89,5207.33
881.71,5052.0
883.52,5012.33
885.33,5002.33
887.14,4951.67
888.95,5134.33
890.76,4978.33
892.56,5059.67
894.37,5141.33
896.18,5111.33
897.98,5426.67
899.78,5570.67
901.59,5517.67
903.39,5652.0
905.19,5545.33
906.99,5285.67
908.78,5330.33
910.58,5274.33
912.38,5060.67
914.17,5764.33
915.97,4949.33
917.76,4839.33
919.55,4723.0
921.35,4609.0
923.14,4552.0
924.93,4590.0
926.71,4713.33
928.5,4711.33
930.29,4461.67
932.08,4852.0
933.86,4639.0
935.64,4539.33
937.43,4624.33
939.21,4461.0
940.99,4668.33
942.77,4673.33
944.55,4438.0
946.33,4636.67
948.1,4883.67
949.88,4747.0
951.66,4564.67
953.43,4782.67
955.2,4721.67
956.98,4758.33
958.75,4790.0
960.52,4770.67
962.29,5224.0
964.05,4784.67
965.82,4925.33
967.59,4861.67
969.35,4706.0
971.12,5105.67
972.88,4955.67
974.64,5081.67
976.41,5219.0
978.17,5285.0
979.93,5613.67
981.69,6025.33
983.44,6322.67
985.2,6889.33
986.96,7629.33
988.71,8602.0
990.46,9333.33
992.22,10610.67
993.97,13180.0
995.72,17831.0
997.47,25934.67
999.22,36343.33
1000.97,43094.0
1002.71,41476.67
1004.46,32722.33
1006.21,22364.33
1007.95,15302.33
1009.69,10829.67
1011.44,8385.67
1013.18,7022.67
1014.92,6429.0
1016.66,6031.67
1018.39,6059.33
1020.13,6512.67
1021.87,6903.33
1023.6,8143.67
1025.34,9500.67
1027.07,11286.67
1028.8,13004.0
1030.54,14145.0
1032.27,13952.0
1034.0,13333.0
1035.73,11494.0
1037.45,9805.33
1039.18,8656.33
1040.91,7462.67
1042.63,6645.33
1044.35,6383.33
1046.08,5967.0
1047.8,5595.0
1049.52,5557.0
1051.24,5552.0
1052.96,5396.33
1054.68,5398.67
1056.39,5269.67
1058.11,5366.0
1059.83,5530.33
1061.54,5387.0
1063.25,5815.0
1064.97,5528.33
1066.68,5821.67
1068.39,5640.33
1070.1,5684.67
1071.8,5686.0
1073.51,5551.67
1075.22,5529.67
1076.92,5402.33
1078.63,5543.0
1080.33,5641.67
1082.03,5358.33
1083.74,5337.67
1085.44,5270.67
1087.14,5332.0
1088.83,5344.33
1090.53,5241.67
1092.23,5209.0
1093.92,5092.33
1095.62,5159.33
1097.31,5282.33
1099.01,5299.0
1100.7,5057.0
1102.39,5019.0
1104.08,4921.67
1105.77,4885.0
1107.46,4591.33
1109.14,4477.33
1110.83,4493.67
1112.51,4405.0
1114.2,4488.67
1115.88,4383.67
1117.56,4282.67
1119.24,4009.0
1120.92,4084.33
1122.6,4121.67
1124.28,4188.0
1125.96,3915.33
1127.64,4004.0
1129.31,4106.67
1130.99,3967.33
1132.66,3875.0
1134.33,3939.33
1136.0,3998.67
1137.67,3971.0
1139.34,4438.33
1141.01,4806.33
1142.68,4401.33
1144.35,4767.0
1146.01,4882.0
1147.68,5491.0
1149.34,5996.0
1151.0,6746.67
1152.66,7357.67
1154.33,8118.67
1155.99,8369.0
1157.64,7647.67
1159.3,7168.0
1160.96,6536.33
1162.61,6060.67
1164.27,5803.0
1165.92,5650.33
1167.58,5552.0
1169.23,5651.67
1170.88,5511.33
1172.53,5984.67
1174.18,6410.0
1175.83,6901.0
1177.47,7826.33
1179.12,8640.0
1180.77,9121.0
1182.41,9369.0
1184.05,9436.0
1185.7,9018.33
1187.34,8513.67
1188.98,8508.33
1190.62,8558.67
1192.26,8708.33
1193.89,8664.33
1195.53,8718.33
1197.17,8928.67
1198.8,8886.67
1200.43,8995.33
1202.07,8787.0
1203.7,8569.67
1205.33,8180.67
1206.96,7584.0
1208.59,7213.67
1210.22,6667.0
1211.84,6177.0
1213.47,5668.0
1215.09,5591.0
1216.72,5454.67
1218.34,5209.0
1219.96,5076.0
1221.58,5075.67
1223.2,5053.0
1224.82,4931.67
1226.44,4533.0
1228.06,4624.67
1229.67,4563.33
1231.29,4502.67
1232.9,4416.67
1234.52,4479.67
1236.13,4345.67
1237.74,4226.67
1239.35,4078.67
1240.96,4307.67
1242.57,4093.67
1244.18,4182.0
1245.78,4231.67
1247.39,4251.67
1248.99,4063.67
1250.6,4166.0
1252.2,4202.33
1253.8,4139.33
1255.4,4170.67
1257.0,4029.67
1258.6,4304.0
1260.2,4162.0
1261.79,4040.67
1263.39,3954.33
1264.98,3923.0
1266.58,3980.0
1268.17,4031.67
1269.76,4112.33
1271.35,4068.33
1272.94,4055.67
1274.53,4148.33
1276.12,4057.0
1277.71,3871.33
1279.29,4005.33
1280.88,4080.0
1282.46,4023.0
1284.05,4150.0
1285.63,3980.67
1287.21,4070.0
1288.79,4090.0
1290.37,4178.67
1291.95,4244.67
1293.52,4106.33
1295.1,4302.0
1296.68,4230.33
1298.25,4349.33
1299.82,4540.67
1301.4,4326.67
1302.97,4643.0
1304.54,4325.67
1306.11,4521.67
1307.68,4520.33
1309.24,4258.33
1310.81,4769.67
1312.38,4486.33
1313.94,4782.33
1315.51,4502.67
1317.07,4740.33
1318.63,4950.33
1320.19,5013.67
1321.75,5084.67
1323.31,5066.0
1324.87,5102.67
1326.42,5008.67
1327.98,5129.0
1329.53,5035.33
1331.09,5243.33
1332.64,5065.67
1334.19,4926.33
1335.75,4871.0
1337.3,4645.67
1338.84,4627.67
1340.39,4427.67
1341.94,4288.33
1343.49,4272.0
1345.03,4149.67
1346.58,3970.33
1348.12,4062.33
1349.66,3786.0
1351.2,4101.67
1352.74,3903.33
1354.28,3962.0
1355.82,3803.67
1357.36,3952.0
1358.9,4033.0
1360.43,3894.0
1361.97,4080.0
1363.5,3882.33
1365.03,3938.0
1366.56,4028.0
1368.09,4001.33
1369.62,3764.67
1371.15,3872.67
1372.68,3845.67
1374.21,3773.67
1375.73,3544.33
1377.26,3735.33
1378.78,3587.67
1380.3,3676.0
1381.83,3575.0
1383.35,3719.0
1384.87,3504.0
1386.39,3349.67
1387.9,3486.33
1389.42,3362.33
1390.94,3300.33
1392.45,3283.67
1393.97,3182.33
1395.48,3152.33
1396.99,3312.0
1398.5,3345.33
1400.01,3210.33
1401.52,3107.67
1403.03,3434.33
1404.54,3114.33
1406.05,3107.33
1407.55,3189.67
1409.06,3244.67
1410.56,3124.33
1412.06,3201.67
1413.56,3146.0
1415.06,2968.67
1416.56,3071.67
1418.06,3310.33
1419.56,3268.67
1421.06,3206.67
1422.55,3195.0
1424.05,3098.33
1425.54,3137.0
1427.03,3222.33
1428.53,3046.0
1430.02,3511.67
1431.51,3400.0
1433.0,3445.67
1434.48,3480.67
1435.97,3647.0
1437.46,3739.0
1438.94,3853.0
1440.43,4105.33
1441.91,4087.67
1443.39,4249.67
1444.87,4411.33
1446.35,4539.33
1447.83,4729.33
1449.31,4672.67
1450.79,4731.67
1452.26,4957.0
1453.74,4506.67
1455.21,4527.67
1456.69,3901.0
1458.16,3781.0
1459.63,3490.0
1461.1,3430.33
1462.57,3371.33
1464.04,3450.67
1465.51,3309.67
1466.97,3087.33
1468.44,3087.67
1469.9,3244.67
1471.37,3057.33
1472.83,3035.67
1474.29,3125.33
1475.75,3055.33
1477.21,3226.33
1478.67,2996.67
1480.13,3043.33
1481.59,3077.67
1483.04,3006.67
1484.5,3148.67
1485.95,3062.33
1487.4,3072.67
1488.86,3361.0
1490.31,2938.33
1491.76,3103.0
1493.21,3304.0
1494.66,3017.0
1496.1,2959.67
1497.55,3019.67
1498.99,2906.67
1500.44,2768.67
1501.88,2764.0
1503.32,2889.0
1504.77,3058.67
1506.21,3004.0
1507.65,3067.67
1509.08,2925.67
1510.52,2876.33
1511.96,2946.67
1513.39,3018.33
1514.83,3003.67
1516.26,3054.67
1517.69,2961.67
1519.13,2849.67
1520.56,2913.67
1521.99,2895.67
1523.42,3000.0
1524.84,2939.67
1526.27,3137.0
1527.7,2899.0
1529.12,2867.67
1530.54,3033.0
1531.97,2983.67
1533.39,3068.0
1534.81,2856.33
1536.23,2857.33
1537.65,3021.0
1539.07,2918.0
1540.48,2876.33
1541.9,2943.0
1543.32,3174.0
1544.73,2953.33
1546.14,2971.33
1547.56,2959.67
1548.97,3005.33
1550.38,3118.0
1551.79,3097.67
1553.19,3000.33
1554.6,3073.67
1556.01,2971.33
1557.41,3045.67
1558.82,3001.67
1560.22,3019.67
1561.62,2985.33
1563.03,3076.33
1564.43,3029.67
1565.83,3026.67
1567.23,3351.0
1568.62,2966.0
1570.02,3244.67
1571.42,3353.33
1572.81,3368.67
1574.2,3578.67
1575.6,3838.0
1576.99,3928.0
1578.38,4115.33
1579.77,4424.0
1581.16,5064.0
1582.55,5484.67
1583.93,5210.67
1585.32,5246.0
1586.7,4841.0
1588.09,4349.33
1589.47,4605.33
1590.85,4259.67
1592.24,4454.33
1593.62,4618.67
1595.0,5005.33
1596.37,5215.33
1597.75,6499.67
1599.13,6766.67
1600.5,7350.33
1601.88,8053.67
1603.25,8074.67
1604.62,7640.0
1605.99,6840.0
1607.36,6136.67
1608.73,5587.33
1610.1,4979.67
1611.47,4466.0
1612.84,4372.33
1614.2,4143.0
1615.57,3781.33
1616.93,3596.67
1618.29,3867.33
1619.66,3613.0
1621.02,3370.0
1622.38,3470.0
1623.74,3585.0
1625.09,3603.0
1626.45,3294.0
1627.81,3391.33
1629.16,3200.33
1630.52,3368.67
1631.87,3219.0
1633.22,3286.33
1634.57,3371.33
1635.92,3236.33
1637.27,3366.33
1638.62,3496.33
1639.97,3271.0
1641.31,3368.67
1642.66,3278.67
1644.0,3119.0
1645.35,3283.67
1646.69,3066.67
1648.03,3220.67
1649.37,3252.0
1650.71,3276.0
1652.05,3335.67
1653.39,3319.33
1654.72,3299.0
1656.06,3176.33
1657.39,3140.67
1658.73,3029.0
1660.06,3257.33
1661.39,3089.67
1662.72,3283.67
1664.05,3058.33
1665.38,3225.33
1666.71,3049.67
1668.03,2834.67
1669.36,2927.33
1670.69,3203.0
1672.01,3019.33
1673.33,3052.33
1674.65,2977.67
1675.98,2924.33
1677.3,3094.33
1678.62,2809.33
1679.93,2959.33
1681.25,2903.0
1682.57,2877.67
1683.88,2977.33
1685.2,2729.33
1686.51,2902.33
1687.82,2839.67
1689.13,2579.0
1690.44,3004.0
1691.75,2762.33
1693.06,2789.0
1694.37,2791.33
1695.68,2689.33
1696.98,2852.33
1698.29,3014.67
1699.59,2710.67
1700.89,2648.67
1702.19,2666.33
1703.49,2755.0
1704.79,2547.33
1706.09,2643.67
1707.39,2644.0
1708.69,2730.67
1709.98,2364.67
1711.28,2545.33
1712.57,2577.0
1713.86,2716.67
1715.16,2512.0
1716.45,2410.67
1717.74,2415.67
1719.03,2619.33
1720.31,2725.67
1721.6,2500.0
1722.89,2655.0
1724.17,2401.67
1725.46,2372.33
1726.74,2509.33
1728.02,2559.0
1729.3,2417.0
1730.58,2584.0
1731.86,2449.67
1733.14,2409.33
1734.42,2299.0
1735.7,2414.67
1736.97,2437.33
1738.25,2475.0
1739.52,2369.0
1740.79,2444.67
1742.06,2428.33
1743.33,2434.67
1744.6,2339.0
1745.87,2347.0
1747.14,2404.0
1748.41,2408.0
1749.67,2373.67
1750.94,2468.67
1752.2,2349.67
1753.46,2410.33
1754.73,2178.67
1755.99,2238.33
1757.25,2308.0
1758.51,2243.33
1759.76,2458.33
1761.02,2234.33
1762.28,2493.67
1763.53,2366.33
1764.79,2417.0
1766.04,2338.33
1767.29,2230.67
1768.54,2367.33
1769.79,2287.67
1771.04,2490.33
1772.29,2213.0
1773.54,2292.0
1774.79,2309.33
1776.03,2430.67
1777.27,2405.33
1778.52,2361.0
1779.76,2141.0
1781.0,2408.33
1782.24,2198.0
1783.48,2160.0
1784.72,2366.67
1785.96,2306.67
1787.2,2289.0
1788.43,2160.0
1789.67,2434.33
1790.9,2283.67
1792.13,2323.0
1793.36,2451.0
1794.6,2407.67
1795.83,2348.33
1797.05,2223.0
1798.28,2215.33
1799.51,2244.67
1800.74,2318.0
1801.96,2242.33
1803.18,2264.67
1804.41,2222.0
1805.63,2515.33
1806.85,2418.33
1808.07,2333.33
1809.29,2362.67
1810.51,2292.67
1811.73,2247.0
1812.94,1972.67
1814.16,2252.33
1815.37,2124.67
1816.59,2189.33
1817.8,2286.33
1819.01,2303.0
1820.22,2176.33
1821.43,2301.67
1822.64,2315.67
1823.85,2195.33
1825.05,2104.33
1826.26,2250.0
1827.46,2262.33
1828.67,2131.0
1829.87,2168.67
1831.07,2198.0
1832.27,2177.67
1833.47,2153.67
1834.67,2267.33
1835.87,2136.0
1837.06,2191.33
1838.26,2289.33
1839.46,2403.0
1840.65,2264.67
1841.84,2208.0
1843.03,2293.0
1844.23,2428.33
1845.42,2200.33
1846.61,2265.0
1847.79,2277.67
1848.98,2213.0
1850.17,2114.33
1851.35,2301.0
1852.54,2178.67
1853.72,2243.33
1854.9,2197.67
1856.08,2364.0
1857.26,2296.67
1858.44,2089.33
1859.62,2185.33
1860.8,2259.67
1861.98,2456.0
1863.15,2176.33
1864.33,2229.33
1865.5,2260.0
1866.67,2085.0
1867.84,2195.0
1869.01,2077.0
1870.18,2463.67
1871.35,2127.33
1872.52,2127.0
1873.69,2080.0
1874.85,2086.67
1876.02,2197.67
1877.18,2076.67
1878.35,2035.67
1879.51,2107.0
1880.67,2221.0
1881.83,2140.0
1882.99,2203.0
1884.15,2014.33
1885.3,2076.33
1886.46,2099.0
1887.61,2176.67
1888.77,2004.33
1889.92,1898.0
1891.07,1920.67
1892.23,2363.67
1893.38,1990.33