File: mAb_dilution_wasatch_plastic/35% Raw +65% Buffer_data.csv
Wavenumber,Intensities
282.29,3432.0
284.39,3388.33
286.49,3317.33
288.59,3231.0
290.7,3162.67
292.79,3116.33
294.89,3055.0
296.99,3030.0
299.09,2964.33
301.18,2929.0
303.28,2890.67
305.37,2893.33
307.47,2855.33
309.56,2819.67
311.65,2849.0
313.74,2811.0
315.83,2828.67
317.92,2844.33
320.0,2895.67
322.09,2856.67
324.18,2882.67
326.26,2863.33
328.34,2910.0
330.43,2890.0
332.51,2882.0
334.59,2855.33
336.67,2889.33
338.75,2823.33
340.83,2852.67
342.9,2844.67
344.98,2824.67
347.05,2795.33
349.13,2798.0
351.2,2807.33
353.27,2776.67
355.35,2772.0
357.42,2757.67
359.49,2751.33
361.55,2778.0
363.62,2752.33
365.69,2798.33
367.75,2865.33
369.82,2871.67
371.88,2893.33
373.95,2915.0
376.01,2979.33
378.07,2983.33
380.13,3052.33
382.19,3103.67
384.25,3150.0
386.31,3205.67
388.36,3264.0
390.42,3328.67
392.47,3356.67
394.53,3403.0
396.58,3444.0
398.63,3527.33
400.68,3587.0
402.73,3658.0
404.78,3737.33
406.83,3718.67
408.87,3723.33
410.92,3630.0
412.97,3589.33
415.01,3456.33
417.05,3389.33
419.1,3321.0
421.14,3241.33
423.18,3177.0
425.22,3151.67
427.25,3113.0
429.29,3047.33
431.33,3045.0
433.36,3041.33
435.4,2992.33
437.43,2981.67
439.47,2934.0
441.5,2964.0
443.53,2907.0
445.56,2911.33
447.59,2860.0
449.62,2815.0
451.64,2741.33
453.67,2699.33
455.7,2666.33
457.72,2636.0
459.74,2627.67
461.77,2587.0
463.79,2549.33
465.81,2525.0
467.83,2491.0
469.85,2488.33
471.86,2444.0
473.88,2469.67
475.9,2451.67
477.91,2428.67
479.93,2439.0
481.94,2418.67
483.95,2421.33
485.96,2443.67
487.97,2445.33
489.98,2471.67
491.99,2427.67
494.0,2392.0
496.0,2388.33
498.01,2351.67
500.01,2340.0
502.02,2323.67
504.02,2271.0
506.02,2259.33
508.02,2213.33
510.02,2241.33
512.02,2220.0
514.02,2208.67
516.01,2196.0
518.01,2188.33
520.01,2185.67
522.0,2186.67
523.99,2199.67
525.99,2198.0
527.98,2224.0
529.97,2278.0
531.96,2314.67
533.94,2394.33
535.93,2446.33
537.92,2474.0
539.9,2492.0
541.89,2510.0
543.87,2475.33
545.85,2488.33
547.84,2421.33
549.82,2411.0
551.8,2371.67
553.78,2386.0
555.75,2356.67
557.73,2323.33
559.71,2311.33
561.68,2278.33
563.66,2264.33
565.63,2239.33
567.6,2224.67
569.57,2203.67
571.54,2181.67
573.51,2127.67
575.48,2093.33
577.45,2097.0
579.41,2073.0
581.38,2039.0
583.34,2030.0
585.31,2036.0
587.27,2008.33
589.23,1995.67
591.19,2002.33
593.15,1986.0
595.11,1992.33
597.07,1982.0
599.03,2008.67
600.98,1998.0
602.94,2021.67
604.89,2017.67
606.84,2076.67
608.8,2143.0
610.75,2327.33
612.7,2624.67
614.65,3207.0
616.6,4208.33
618.54,5718.0
620.49,6956.0
622.43,6764.67
624.38,5379.33
626.32,3951.67
628.27,3051.33
630.21,2540.33
632.15,2232.33
634.09,2128.67
636.03,1936.33
637.96,1883.33
639.9,1828.67
641.84,1760.67
643.77,1739.0
645.71,1691.0
647.64,1670.67
649.57,1652.0
651.5,1621.0
653.43,1616.67
655.36,1604.0
657.29,1596.0
659.22,1574.67
661.14,1556.67
663.07,1592.0
664.99,1535.33
666.92,1536.33
668.84,1545.33
670.76,1521.67
672.68,1520.0
674.6,1511.0
676.52,1525.33
678.44,1473.33
680.35,1518.0
682.27,1470.67
684.19,1482.0
686.1,1505.0
688.01,1506.0
689.92,1528.33
691.83,1506.0
693.74,1570.33
695.65,1589.67
697.56,1627.33
699.47,1712.67
701.38,1736.0
703.28,1705.33
705.19,1667.33
707.09,1635.33
708.99,1607.33
710.89,1559.33
712.79,1536.67
714.69,1512.33
716.59,1500.0
718.49,1507.33
720.39,1496.0
722.28,1540.33
724.18,1556.33
726.07,1558.0
727.96,1621.0
729.85,1721.0
731.74,1848.0
733.63,1947.67
735.52,2097.0
737.41,2252.67
739.3,2387.0
741.18,2504.67
743.07,2553.67
744.95,2604.33
746.84,2710.67
748.72,2832.33
750.6,2930.0
752.48,3018.67
754.36,3166.67
756.24,3253.67
758.12,3323.67
759.99,3271.67
761.87,3241.33
763.74,3225.0
765.62,3165.33
767.49,3135.0
769.36,3021.33
771.23,2936.33
773.1,2893.33
774.97,2845.67
776.84,2832.67
778.7,2903.33
780.57,3059.0
782.44,3255.33
784.3,3528.33
786.16,3803.67
788.02,4190.33
789.89,4541.0
791.75,4905.67
793.6,5153.67
795.46,5245.67
797.32,5152.67
799.18,4887.33
801.03,4470.33
802.89,3990.33
804.74,3599.67
806.59,3256.67
808.44,3012.33
810.29,2808.33
812.14,2607.0
813.99,2444.0
815.84,2305.33
817.69,2156.67
819.53,2017.67
821.38,1888.0
823.22,1845.0
825.06,1793.0
826.9,1750.33
828.75,1800.67
830.59,1844.0
832.42,1897.0
834.26,1988.33
836.1,2057.0
837.93,2192.0
839.77,2251.33
841.6,2274.33
843.44,2222.67
845.27,2186.67
847.1,2082.0
848.93,1994.67
850.76,1940.0
852.59,1885.0
854.42,1884.33
856.24,1824.33
858.07,1854.0
859.89,1809.0
861.72,1829.0
863.54,1806.0
865.36,1807.33
867.18,1780.67
869.0,1790.67
870.82,1728.0
872.64,1740.0
874.45,1735.33
876.27,1701.0
878.08,1699.67
879.9,1693.67
881.71,1685.67
883.52,1638.0
885.33,1707.33
887.14,1660.33
888.95,1682.0
890.76,1670.67
892.57,1718.67
894.37,1738.0
896.18,1735.33
897.98,1877.0
899.79,1953.67
901.59,1975.67
903.39,2084.67
905.19,2085.67
906.99,2030.0
908.79,1984.67
910.58,1890.67
912.38,1773.33
914.18,1702.67
915.97,1575.33
917.76,1563.0
919.56,1485.67
921.35,1459.0
923.14,1423.67
924.93,1436.33
926.72,1413.33
928.51,1394.33
930.29,1369.33
932.08,1385.67
933.86,1389.67
935.65,1395.67
937.43,1405.67
939.21,1390.67
940.99,1444.0
942.77,1442.67
944.55,1445.33
946.33,1436.67
948.11,1485.0
949.88,1470.33
951.66,1459.67
953.43,1478.0
955.21,1506.67
956.98,1512.33
958.75,1548.0
960.52,1602.33
962.29,1685.33
964.06,1681.67
965.82,1721.0
967.59,1709.67
969.36,1726.67
971.12,1782.0
972.88,1791.67
974.65,1879.0
976.41,1981.0
978.17,2175.67
979.93,2371.33
981.69,2605.67
983.45,2925.0
985.2,3407.0
986.96,4041.33
988.71,4784.0
990.47,5614.0
992.22,6779.33
993.97,8919.0
995.72,13148.67
997.47,20274.0
999.22,29480.33
1000.97,35501.67
1002.72,34056.33
1004.46,26278.0
1006.21,17486.0
1007.95,11002.67
1009.7,7019.67
1011.44,4825.0
1013.18,3641.33
1014.92,3056.33
1016.66,2821.0
1018.4,2814.67
1020.13,3094.33
1021.87,3637.33
1023.61,4503.33
1025.34,5826.67
1027.07,7470.0
1028.81,9034.33
1030.54,10094.67
1032.27,10138.0
1034.0,9252.67
1035.73,7768.67
1037.46,6222.0
1039.18,4976.33
1040.91,4045.33
1042.63,3392.33
1044.36,3037.67
1046.08,2758.0
1047.8,2524.67
1049.52,2405.0
1051.24,2304.67
1052.96,2268.33
1054.68,2248.0
1056.4,2218.67
1058.11,2213.33
1059.83,2246.33
1061.54,2255.33
1063.26,2327.67
1064.97,2410.0
1066.68,2465.67
1068.39,2512.67
1070.1,2533.0
1071.81,2498.33
1073.51,2511.33
1075.22,2431.33
1076.93,2374.33
1078.63,2309.67
1080.33,2299.67
1082.04,2249.0
1083.74,2205.0
1085.44,2204.33
1087.14,2184.0
1088.84,2157.67
1090.53,2153.33
1092.23,2183.33
1093.93,2201.33
1095.62,2186.0
1097.32,2193.33
1099.01,2123.67
1100.7,2078.0
1102.39,1988.33
1104.08,1878.33
1105.77,1739.0
1107.46,1643.0
1109.15,1550.33
1110.83,1493.33
1112.52,1431.33
1114.2,1380.67
1115.88,1342.33
1117.57,1296.0
1119.25,1193.67
1120.93,1163.33
1122.61,1117.33
1124.28,1082.0
1125.96,1093.33
1127.64,1094.67
1129.31,1064.33
1130.99,1083.33
1132.66,1097.67
1134.33,1116.33
1136.01,1161.67
1137.68,1187.33
1139.35,1308.67
1141.01,1401.33
1142.68,1536.33
1144.35,1712.67
1146.01,1969.33
1147.68,2335.0
1149.34,2833.67
1151.01,3510.67
1152.67,4247.67
1154.33,4731.0
1155.99,4830.67
1157.65,4487.67
1159.3,3899.33
1160.96,3345.33
1162.62,3000.67
1164.27,2704.0
1165.93,2560.67
1167.58,2488.0
1169.23,2523.67
1170.88,2630.0
1172.53,2862.67
1174.18,3196.0
1175.83,3770.33
1177.48,4550.0
1179.12,5358.67
1180.77,5902.67
1182.41,6130.67
1184.06,5957.67
1185.7,5621.67
1187.34,5286.33
1188.98,5172.33
1190.62,5126.0
1192.26,5222.33
1193.9,5408.33
1195.53,5496.67
1197.17,5566.33
1198.8,5595.33
1200.44,5570.0
1202.07,5420.33
1203.7,5141.33
1205.33,4804.33
1206.96,4412.33
1208.59,3995.67
1210.22,3560.33
1211.85,3171.33
1213.47,2907.0
1215.1,2617.0
1216.72,2413.33
1218.34,2295.0
1219.96,2170.67
1221.59,2101.67
1223.21,2056.67
1224.83,1947.67
1226.44,1880.67
1228.06,1804.0
1229.68,1705.0
1231.29,1672.67
1232.91,1576.0
1234.52,1529.33
1236.13,1480.67
1237.74,1437.67
1239.35,1409.0
1240.96,1427.67
1242.57,1406.0
1244.18,1416.33
1245.78,1370.33
1247.39,1388.33
1248.99,1364.0
1250.6,1348.0
1252.2,1337.33
1253.8,1316.33
1255.4,1300.0
1257.0,1271.0
1258.6,1237.0
1260.2,1260.67
1261.8,1255.0
1263.39,1255.67
1264.99,1253.33
1266.58,1252.67
1268.17,1234.0
1269.77,1245.33
1271.36,1239.0
1272.95,1225.0
1274.54,1244.0
1276.12,1251.33
1277.71,1249.0
1279.3,1268.67
1280.88,1248.33
1282.47,1215.0
1284.05,1289.33
1285.63,1285.67
1287.21,1316.0
1288.79,1316.0
1290.37,1379.67
1291.95,1413.33
1293.53,1448.0
1295.1,1483.67
1296.68,1507.33
1298.25,1540.0
1299.83,1569.33
1301.4,1607.33
1302.97,1624.0
1304.54,1660.67
1306.11,1671.0
1307.68,1664.0
1309.25,1682.0
1310.81,1724.67
1312.38,1765.67
1313.94,1806.0
1315.51,1848.0
1317.07,1960.33
1318.63,2023.67
1320.19,2078.67
1321.75,2151.0
1323.31,2205.67
1324.87,2238.0
1326.43,2253.33
1327.98,2237.33
1329.54,2233.67
1331.09,2218.67
1332.64,2174.0
1334.2,2113.33
1335.75,2007.0
1337.3,1880.67
1338.85,1774.33
1340.4,1682.0
1341.94,1614.67
1343.49,1536.67
1345.03,1485.0
1346.58,1425.0
1348.12,1377.33
1349.66,1328.67
1351.21,1292.0
1352.75,1288.67
1354.29,1284.67
1355.82,1256.67
1357.36,1247.0
1358.9,1282.33
1360.43,1270.33
1361.97,1240.33
1363.5,1235.0
1365.03,1265.67
1366.57,1264.33
1368.1,1240.0
1369.63,1231.33
1371.16,1235.0
1372.68,1172.0
1374.21,1174.67
1375.74,1111.0
1377.26,1029.0
1378.78,1008.33
1380.31,948.0
1381.83,883.33
1383.35,896.0
1384.87,820.0
1386.39,776.0
1387.91,759.0
1389.42,739.33
1390.94,702.33
1392.46,719.33
1393.97,710.33
1395.48,667.0
1397.0,698.67
1398.51,681.0
1400.02,715.33
1401.53,680.67
1403.04,698.67
1404.54,666.0
1406.05,650.67
1407.55,665.67
1409.06,682.0
1410.56,650.67
1412.06,638.0
1413.57,653.0
1415.07,645.33
1416.57,631.67
1418.07,617.67
1419.56,644.0
1421.06,634.0
1422.56,636.67
1424.05,638.33
1425.54,651.67
1427.04,663.0
1428.53,702.33
1430.02,745.33
1431.51,803.67
1433.0,879.67
1434.49,956.67
1435.97,1072.0
1437.46,1187.33
1438.94,1296.33
1440.43,1417.33
1441.91,1530.0
1443.39,1665.67
1444.88,1807.33
1446.36,1959.67
1447.83,2071.67
1449.31,2113.67
1450.79,2164.67
1452.27,2097.33
1453.74,1970.33
1455.22,1765.67
1456.69,1535.0
1458.16,1276.0
1459.63,1043.33
1461.1,919.0
1462.57,797.33
1464.04,768.33
1465.51,723.67
1466.98,666.0
1468.44,658.0
1469.91,640.67
1471.37,625.0
1472.83,597.33
1474.3,595.67
1475.76,573.33
1477.22,568.33
1478.67,559.33
1480.13,570.67
1481.59,546.67
1483.05,586.33
1484.5,564.67
1485.95,598.33
1487.41,568.33
1488.86,610.33
1490.31,619.0
1491.76,637.67
1493.21,690.0
1494.66,694.67
1496.11,659.0
1497.55,614.0
1499.0,574.67
1500.44,564.33
1501.88,553.0
1503.33,553.0
1504.77,550.67
1506.21,554.33
1507.65,541.67
1509.09,505.0
1510.52,529.33
1511.96,510.33
1513.4,517.67
1514.83,524.0
1516.26,543.0
1517.7,499.0
1519.13,544.0
1520.56,542.67
1521.99,517.67
1523.42,518.0
1524.85,536.67
1526.27,542.0
1527.7,528.0
1529.12,544.0
1530.55,540.33
1531.97,549.33
1533.39,486.33
1534.81,541.33
1536.23,522.67
1537.65,534.0
1539.07,530.0
1540.49,560.67
1541.9,566.0
1543.32,548.33
1544.73,540.0
1546.15,554.67
1547.56,568.33
1548.97,554.0
1550.38,569.33
1551.79,589.67
1553.2,605.0
1554.61,646.33
1556.01,637.0
1557.42,613.67
1558.82,623.67
1560.22,612.33
1561.63,624.0
1563.03,638.0
1564.43,655.67
1565.83,683.67
1567.23,715.0
1568.63,717.67
1570.02,803.67
1571.42,820.0
1572.81,905.0
1574.21,990.67
1575.6,1118.67
1576.99,1298.67
1578.38,1540.0
1579.77,1875.33
1581.16,2297.0
1582.55,2680.67
1583.94,2775.0
1585.32,2569.33
1586.71,2267.67
1588.09,1956.67
1589.47,1758.0
1590.86,1712.67
1592.24,1751.33
1593.62,1956.67
1595.0,2238.67
1596.38,2697.0
1597.75,3273.0
1599.13,3980.0
1600.51,4675.67
1601.88,5133.33
1603.25,5225.67
1604.63,4818.0
1606.0,4252.33
1607.37,3506.0
1608.74,2907.33
1610.11,2327.33
1611.47,1887.33
1612.84,1558.0
1614.21,1362.0
1615.57,1199.33
1616.93,1076.0
1618.3,1029.33
1619.66,968.0
1621.02,909.0
1622.38,898.67
1623.74,866.67
1625.1,841.33
1626.45,805.0
1627.81,791.0
1629.16,769.67
1630.52,753.0
1631.87,742.67
1633.22,716.33
1634.57,695.33
1635.92,692.33
1637.27,676.0
1638.62,666.0
1639.97,650.33
1641.32,640.33
1642.66,640.33
1644.01,660.67
1645.35,630.0
1646.69,620.33
1648.03,620.0
1649.37,608.0
1650.71,601.33
1652.05,630.33
1653.39,624.0
1654.73,614.67
1656.06,592.33
1657.4,596.33
1658.73,596.33
1660.06,593.0
1661.39,571.0
1662.72,572.0
1664.05,572.33
1665.38,567.0
1666.71,526.33
1668.04,578.33
1669.36,531.67
1670.69,555.67
1672.01,554.67
1673.34,525.0
1674.66,558.0
1675.98,530.0
1677.3,531.67
1678.62,521.33
1679.94,495.0
1681.25,511.33
1682.57,497.33
1683.88,507.67
1685.2,460.67
1686.51,484.33
1687.82,463.33
1689.14,449.0
1690.45,458.33
1691.76,438.33
1693.06,441.67
1694.37,404.33
1695.68,392.33
1696.98,397.67
1698.29,389.33
1699.59,397.67
1700.89,382.67
1702.2,383.33
1703.5,358.0
1704.8,369.33
1706.1,348.0
1707.39,353.33
1708.69,370.67
1709.99,340.67
1711.28,320.33
1712.57,351.67
1713.87,335.0
1715.16,329.33
1716.45,335.33
1717.74,327.67
1719.03,311.33
1720.32,340.33
1721.6,287.33
1722.89,315.0
1724.18,317.67
1725.46,279.67
1726.74,305.0
1728.03,267.33
1729.31,274.33
1730.59,284.33
1731.87,287.67
1733.15,292.33
1734.42,287.33
1735.7,267.0
1736.97,259.33
1738.25,292.0
1739.52,263.33
1740.79,257.0
1742.07,237.67
1743.34,282.33
1744.61,270.67
1745.88,249.33
1747.14,283.33
1748.41,263.33
1749.68,244.33
1750.94,241.67
1752.2,242.67
1753.47,244.33
1754.73,247.0
1755.99,229.0
1757.25,213.67
1758.51,229.67
1759.77,251.33
1761.02,246.67
1762.28,238.67
1763.54,231.67
1764.79,236.33
1766.04,228.67
1767.29,233.0
1768.55,226.33
1769.8,230.67
1771.05,223.0
1772.29,220.0
1773.54,225.67
1774.79,226.67
1776.03,215.0
1777.28,222.67
1778.52,237.67
1779.76,183.67
1781.01,227.67
1782.25,192.33
1783.49,220.0
1784.72,219.0
1785.96,217.0
1787.2,199.67
1788.43,214.67
1789.67,216.67
1790.9,202.67
1792.14,190.0
1793.37,205.33
1794.6,235.33
1795.83,202.67
1797.06,184.0
1798.28,191.0
1799.51,206.33
1800.74,220.67
1801.96,222.33
1803.19,200.0
1804.41,205.0
1805.63,213.67
1806.85,215.33
1808.07,215.33
1809.29,207.67
1810.51,193.33
1811.73,220.33
1812.94,178.67
1814.16,200.0
1815.37,195.0
1816.59,202.33
1817.8,198.67
1819.01,196.33
1820.22,200.0
1821.43,205.0
1822.64,202.67
1823.85,181.0
1825.05,174.67
1826.26,193.67
1827.46,167.33
1828.67,166.0
1829.87,191.0
1831.07,179.33
1832.27,174.67
1833.47,174.67
1834.67,182.0
1835.87,186.0
1837.07,155.67
1838.26,170.67
1839.46,164.33
1840.65,190.0
1841.85,168.33
1843.04,184.67
1844.23,186.0
1845.42,191.33
1846.61,163.33
1847.8,182.33
1848.98,140.33
1850.17,164.67
1851.35,149.33
1852.54,144.0
1853.72,163.67
1854.9,169.33
1856.09,149.33
1857.27,166.0
1858.45,163.0
1859.62,171.0
1860.8,157.0
1861.98,161.0
1863.15,166.0
1864.33,158.0
1865.5,164.33
1866.68,147.0
1867.85,155.67
1869.02,153.33
1870.19,177.67
1871.36,147.0
1872.52,154.33
1873.69,152.0
1874.86,138.0
1876.02,151.67
1877.19,150.67
1878.35,148.0
1879.51,166.0
1880.67,161.67
1881.83,159.0
1882.99,171.0
1884.15,154.0
1885.31,148.33
1886.46,150.67
1887.62,159.33
1888.77,155.67
1889.92,156.67
1891.08,165.67
1892.23,150.67
1893.38,153.0