File: mAb_dilution_wasatch_plastic/40% Raw + 60% Buffer_data.csv
Wavenumber,Intensities
282.29,1759.0
284.39,1762.0
286.49,1739.33
288.59,1685.67
290.7,1641.33
292.79,1622.67
294.89,1564.33
296.99,1546.67
299.09,1541.67
301.18,1526.33
303.28,1526.33
305.37,1531.33
307.47,1477.0
309.56,1497.0
311.65,1454.33
313.74,1446.67
315.83,1439.0
317.92,1489.67
320.0,1475.67
322.09,1474.67
324.18,1469.0
326.26,1479.67
328.34,1482.33
330.43,1462.0
332.51,1472.0
334.59,1490.0
336.67,1449.0
338.75,1465.33
340.83,1458.0
342.9,1452.67
344.98,1426.0
347.05,1405.0
349.13,1436.33
351.2,1448.0
353.27,1416.33
355.35,1399.67
357.42,1424.67
359.49,1425.0
361.55,1436.67
363.62,1402.33
365.69,1435.33
367.75,1483.0
369.82,1452.67
371.88,1485.67
373.95,1493.67
376.01,1497.0
378.07,1511.33
380.13,1522.33
382.19,1559.33
384.25,1583.0
386.31,1612.0
388.36,1639.0
390.42,1644.0
392.47,1679.67
394.53,1693.33
396.58,1722.33
398.63,1757.67
400.68,1785.33
402.73,1793.67
404.78,1816.33
406.83,1821.33
408.87,1807.33
410.92,1748.0
412.97,1765.67
415.01,1751.67
417.05,1680.0
419.1,1667.67
421.14,1638.0
423.18,1615.0
425.22,1600.0
427.25,1584.33
429.29,1559.0
431.33,1573.0
433.36,1544.33
435.4,1534.0
437.43,1545.33
439.47,1496.0
441.5,1521.0
443.53,1496.0
445.56,1488.33
447.59,1497.0
449.62,1463.0
451.64,1423.67
453.67,1401.0
455.7,1419.67
457.72,1394.33
459.74,1389.67
461.77,1368.0
463.79,1343.0
465.81,1358.33
467.83,1321.67
469.85,1329.0
471.86,1311.33
473.88,1297.67
475.9,1298.67
477.91,1287.0
479.93,1322.67
481.94,1274.67
483.95,1278.33
485.96,1318.67
487.97,1290.0
489.98,1277.0
491.99,1262.0
494.0,1245.33
496.0,1283.67
498.01,1268.0
500.01,1253.0
502.02,1245.33
504.02,1205.0
506.02,1180.67
508.02,1201.0
510.02,1190.67
512.02,1208.67
514.02,1156.0
516.01,1187.33
518.01,1179.67
520.01,1142.67
522.0,1188.33
523.99,1178.33
525.99,1194.67
527.98,1188.33
529.97,1212.33
531.96,1222.33
533.94,1237.67
535.93,1264.33
537.92,1292.0
539.9,1288.33
541.89,1277.33
543.87,1285.33
545.85,1295.0
547.84,1248.0
549.82,1230.33
551.8,1244.0
553.78,1229.33
555.75,1225.0
557.73,1198.33
559.71,1195.0
561.68,1207.33
563.66,1192.0
565.63,1173.33
567.6,1173.0
569.57,1158.33
571.54,1162.67
573.51,1120.0
575.48,1103.67
577.45,1117.33
579.41,1125.0
581.38,1074.33
583.34,1072.0
585.31,1081.0
587.27,1069.67
589.23,1075.33
591.19,1065.67
593.15,1054.33
595.11,1049.33
597.07,1060.67
599.03,1074.67
600.98,1088.0
602.94,1088.67
604.89,1057.0
606.84,1095.67
608.8,1111.33
610.75,1194.67
612.7,1301.0
614.65,1503.33
616.6,1892.0
618.54,2494.33
620.49,2972.67
622.43,2878.0
624.38,2407.67
626.32,1807.67
628.27,1472.0
630.21,1258.0
632.15,1153.33
634.09,1076.67
636.03,1036.33
637.96,1001.33
639.9,982.0
641.84,946.0
643.77,936.67
645.71,929.33
647.64,923.67
649.57,887.33
651.5,901.0
653.43,897.67
655.36,892.33
657.29,901.33
659.22,874.67
661.14,867.0
663.07,879.67
664.99,877.67
666.92,855.67
668.84,850.33
670.76,853.33
672.68,821.33
674.6,833.0
676.52,831.67
678.44,807.33
680.35,833.33
682.27,821.67
684.19,839.33
686.1,839.0
688.01,854.33
689.92,855.67
691.83,828.67
693.74,886.0
695.65,878.33
697.56,884.67
699.47,883.33
701.38,931.33
703.28,907.67
705.19,895.0
707.09,879.67
708.99,868.33
710.89,875.67
712.79,847.0
714.69,845.33
716.59,807.33
718.49,821.33
720.39,832.67
722.28,838.0
724.18,888.33
726.07,872.0
727.96,868.33
729.85,892.0
731.74,945.33
733.63,976.0
735.52,1039.0
737.41,1093.67
739.3,1164.33
741.18,1198.67
743.07,1226.0
744.95,1265.67
746.84,1269.0
748.72,1320.0
750.6,1360.67
752.48,1408.0
754.36,1466.0
756.24,1516.33
758.12,1516.33
759.99,1528.67
761.87,1488.0
763.74,1484.33
765.62,1466.67
767.49,1451.67
769.36,1411.33
771.23,1383.33
773.1,1354.33
774.97,1348.0
776.84,1307.67
778.7,1349.33
780.57,1409.33
782.44,1490.0
784.3,1568.0
786.16,1705.0
788.02,1865.33
789.89,1997.0
791.75,2141.33
793.6,2256.67
795.46,2299.67
797.32,2275.67
799.18,2166.67
801.03,2013.67
802.89,1801.0
804.74,1629.0
806.59,1483.67
808.44,1389.67
810.29,1326.33
812.14,1254.0
813.99,1174.33
815.84,1097.67
817.69,1069.33
819.53,994.67
821.38,948.67
823.22,929.0
825.06,893.0
826.9,891.0
828.75,900.0
830.59,896.0
832.42,951.33
834.26,982.33
836.1,991.33
837.93,1063.33
839.77,1075.67
841.6,1074.67
843.44,1053.0
845.27,1047.67
847.1,1021.33
848.93,984.67
850.76,935.0
852.59,933.33
854.42,929.0
856.24,922.67
858.07,898.33
859.89,896.33
861.72,902.33
863.54,890.0
865.36,910.0
867.18,891.0
869.0,889.33
870.82,862.33
872.64,860.33
874.45,828.0
876.27,839.33
878.08,869.67
879.9,832.0
881.71,856.33
883.52,810.33
885.33,817.67
887.14,817.67
888.95,827.0
890.76,831.33
892.57,835.33
894.37,837.0
896.18,821.33
897.98,883.0
899.79,939.0
901.59,932.67
903.39,1001.0
905.19,979.33
906.99,955.33
908.79,919.0
910.58,909.0
912.38,881.0
914.18,845.67
915.97,773.0
917.76,763.33
919.56,744.33
921.35,729.0
923.14,722.33
924.93,739.0
926.72,719.67
928.51,693.0
930.29,698.67
932.08,691.0
933.86,700.0
935.65,708.67
937.43,702.67
939.21,687.0
940.99,725.33
942.77,703.67
944.55,701.0
946.33,705.33
948.11,743.0
949.88,689.33
951.66,725.33
953.43,727.67
955.21,723.0
956.98,740.33
958.75,738.0
960.52,764.67
962.29,820.0
964.06,791.0
965.82,800.0
967.59,806.33
969.36,786.0
971.12,835.33
972.88,845.67
974.65,878.33
976.41,905.0
978.17,973.33
979.93,1080.67
981.69,1165.67
983.45,1306.33
985.2,1497.33
986.96,1771.0
988.71,2034.0
990.47,2359.0
992.22,2797.0
993.97,3647.33
995.72,5284.0
997.47,8139.0
999.22,11792.0
1000.97,14338.0
1002.72,13781.33
1004.46,10717.0
1006.21,7181.0
1007.95,4531.67
1009.7,2924.0
1011.44,2069.67
1013.18,1559.33
1014.92,1350.33
1016.66,1231.33
1018.4,1232.67
1020.13,1374.67
1021.87,1532.67
1023.61,1894.67
1025.34,2421.0
1027.07,3045.33
1028.81,3712.33
1030.54,4125.0
1032.27,4101.0
1034.0,3761.33
1035.73,3181.67
1037.46,2603.67
1039.18,2080.33
1040.91,1703.67
1042.63,1491.33
1044.36,1306.0
1046.08,1212.33
1047.8,1125.0
1049.52,1072.0
1051.24,1025.33
1052.96,1006.33
1054.68,968.33
1056.4,997.33
1058.11,994.67
1059.83,1014.0
1061.54,1014.0
1063.26,1035.33
1064.97,1074.67
1066.68,1077.0
1068.39,1098.67
1070.1,1124.33
1071.81,1102.67
1073.51,1114.0
1075.22,1074.67
1076.93,1054.0
1078.63,1025.0
1080.33,1027.33
1082.04,998.67
1083.74,993.67
1085.44,963.0
1087.14,979.0
1088.84,971.67
1090.53,967.0
1092.23,972.0
1093.93,983.67
1095.62,975.67
1097.32,979.67
1099.01,965.67
1100.7,945.67
1102.39,907.33
1104.08,860.67
1105.77,812.67
1107.46,744.0
1109.15,691.0
1110.83,694.67
1112.52,674.67
1114.2,656.67
1115.88,648.0
1117.57,615.0
1119.25,587.67
1120.93,578.67
1122.61,539.0
1124.28,545.33
1125.96,550.33
1127.64,548.0
1129.31,535.33
1130.99,526.33
1132.66,529.0
1134.33,549.0
1136.01,559.33
1137.68,593.33
1139.35,648.0
1141.01,672.33
1142.68,724.0
1144.35,795.0
1146.01,885.0
1147.68,1010.0
1149.34,1192.33
1151.01,1487.0
1152.67,1742.67
1154.33,1969.33
1155.99,1972.0
1157.65,1849.0
1159.3,1674.33
1160.96,1395.0
1162.62,1255.33
1164.27,1167.0
1165.93,1106.33
1167.58,1104.67
1169.23,1106.0
1170.88,1159.67
1172.53,1223.67
1174.18,1340.33
1175.83,1570.33
1177.48,1862.0
1179.12,2196.0
1180.77,2408.67
1182.41,2487.0
1184.06,2435.33
1185.7,2294.33
1187.34,2178.0
1188.98,2123.67
1190.62,2156.67
1192.26,2159.33
1193.9,2233.0
1195.53,2250.33
1197.17,2259.0
1198.8,2345.0
1200.44,2271.67
1202.07,2277.0
1203.7,2165.33
1205.33,2022.67
1206.96,1848.0
1208.59,1675.67
1210.22,1479.67
1211.85,1361.33
1213.47,1241.67
1215.1,1120.33
1216.72,1045.67
1218.34,987.67
1219.96,967.33
1221.59,921.0
1223.21,908.67
1224.83,887.0
1226.44,828.67
1228.06,825.33
1229.68,768.33
1231.29,772.0
1232.91,724.33
1234.52,704.67
1236.13,669.33
1237.74,658.0
1239.35,676.0
1240.96,660.67
1242.57,649.67
1244.18,649.67
1245.78,649.0
1247.39,655.33
1248.99,646.0
1250.6,630.67
1252.2,616.0
1253.8,616.33
1255.4,617.67
1257.0,607.67
1258.6,598.67
1260.2,603.67
1261.8,594.33
1263.39,577.33
1264.99,593.67
1266.58,599.67
1268.17,590.0
1269.77,600.0
1271.36,584.0
1272.95,578.67
1274.54,596.33
1276.12,589.67
1277.71,594.33
1279.3,593.0
1280.88,600.33
1282.47,564.67
1284.05,608.67
1285.63,603.67
1287.21,597.33
1288.79,627.67
1290.37,640.67
1291.95,654.0
1293.53,663.0
1295.1,656.0
1296.68,686.0
1298.25,711.0
1299.83,738.0
1301.4,715.33
1302.97,781.33
1304.54,754.0
1306.11,745.67
1307.68,744.0
1309.25,741.33
1310.81,793.67
1312.38,790.0
1313.94,810.33
1315.51,793.67
1317.07,835.33
1318.63,889.67
1320.19,887.67
1321.75,911.67
1323.31,956.67
1324.87,952.0
1326.43,952.33
1327.98,974.0
1329.54,973.33
1331.09,962.0
1332.64,936.33
1334.2,904.67
1335.75,888.33
1337.3,822.67
1338.85,787.33
1340.4,715.33
1341.94,717.67
1343.49,702.67
1345.03,677.67
1346.58,654.33
1348.12,626.67
1349.66,608.33
1351.21,591.0
1352.75,597.33
1354.29,586.0
1355.82,574.33
1357.36,577.33
1358.9,577.33
1360.43,588.67
1361.97,574.33
1363.5,559.67
1365.03,579.33
1366.57,588.67
1368.1,561.67
1369.63,563.0
1371.16,569.33
1372.68,569.33
1374.21,550.67
1375.74,539.0
1377.26,491.0
1378.78,473.33
1380.31,458.0
1381.83,426.33
1383.35,449.33
1384.87,406.0
1386.39,376.0
1387.91,387.0
1389.42,380.0
1390.94,357.0
1392.46,394.0
1393.97,364.67
1395.48,359.33
1397.0,351.67
1398.51,355.67
1400.02,371.33
1401.53,355.33
1403.04,355.67
1404.54,354.33
1406.05,336.67
1407.55,358.0
1409.06,350.67
1410.56,331.33
1412.06,357.0
1413.57,341.67
1415.07,320.33
1416.57,309.0
1418.07,339.33
1419.56,364.33
1421.06,346.67
1422.56,353.33
1424.05,342.0
1425.54,354.33
1427.04,324.0
1428.53,350.67
1430.02,357.0
1431.51,413.0
1433.0,441.67
1434.49,446.33
1435.97,512.67
1437.46,550.67
1438.94,577.33
1440.43,632.67
1441.91,679.33
1443.39,734.33
1444.88,774.33
1446.36,840.67
1447.83,867.0
1449.31,898.33
1450.79,885.0
1452.27,877.33
1453.74,849.33
1455.22,754.33
1456.69,647.67
1458.16,582.67
1459.63,485.0
1461.1,432.67
1462.57,387.33
1464.04,399.0
1465.51,368.33
1466.98,342.0
1468.44,349.0
1469.91,339.0
1471.37,324.0
1472.83,344.0
1474.3,322.33
1475.76,324.0
1477.22,293.67
1478.67,305.0
1480.13,305.0
1481.59,311.67
1483.05,307.67
1484.5,304.0
1485.95,311.0
1487.41,295.33
1488.86,329.33
1490.31,312.33
1491.76,309.67
1493.21,350.67
1494.66,325.67
1496.11,334.0
1497.55,300.0
1499.0,306.33
1500.44,303.67
1501.88,279.33
1503.33,287.33
1504.77,301.0
1506.21,292.33
1507.65,301.33
1509.09,258.33
1510.52,287.67
1511.96,281.33
1513.4,264.33
1514.83,272.0
1516.26,312.67
1517.7,257.0
1519.13,285.33
1520.56,301.0
1521.99,273.0
1523.42,271.33
1524.85,291.0
1526.27,291.33
1527.7,267.33
1529.12,291.0
1530.55,311.33
1531.97,310.0
1533.39,272.33
1534.81,284.67
1536.23,268.67
1537.65,281.0
1539.07,282.33
1540.49,287.0
1541.9,285.0
1543.32,295.0
1544.73,282.33
1546.15,257.33
1547.56,293.67
1548.97,325.33
1550.38,308.67
1551.79,312.33
1553.2,311.33
1554.61,330.0
1556.01,325.33
1557.42,315.33
1558.82,325.33
1560.22,330.33
1561.63,318.0
1563.03,334.0
1564.43,331.33
1565.83,357.0
1567.23,367.0
1568.63,384.0
1570.02,410.0
1571.42,412.67
1572.81,410.0
1574.21,466.67
1575.6,510.0
1576.99,602.33
1578.38,677.0
1579.77,799.67
1581.16,969.33
1582.55,1067.0
1583.94,1124.67
1585.32,1040.33
1586.71,958.0
1588.09,854.33
1589.47,766.0
1590.86,724.0
1592.24,764.33
1593.62,820.0
1595.0,942.33
1596.38,1096.0
1597.75,1297.67
1599.13,1605.67
1600.51,1833.0
1601.88,1996.0
1603.25,2069.33
1604.63,1938.67
1606.0,1693.33
1607.37,1434.33
1608.74,1203.67
1610.11,1005.0
1611.47,834.33
1612.84,711.33
1614.21,640.67
1615.57,577.0
1616.93,534.33
1618.3,522.67
1619.66,501.33
1621.02,480.0
1622.38,463.33
1623.74,456.67
1625.1,436.33
1626.45,427.67
1627.81,422.67
1629.16,414.0
1630.52,430.33
1631.87,411.0
1633.22,418.67
1634.57,408.67
1635.92,400.0
1637.27,400.0
1638.62,384.0
1639.97,363.0
1641.32,356.33
1642.66,368.0
1644.01,372.0
1645.35,374.33
1646.69,375.0
1648.03,362.0
1649.37,359.67
1650.71,371.0
1652.05,353.33
1653.39,373.0
1654.73,341.0
1656.06,344.33
1657.4,335.33
1658.73,354.67
1660.06,336.33
1661.39,331.67
1662.72,331.33
1664.05,333.0
1665.38,326.67
1666.71,317.33
1668.04,320.33
1669.36,326.67
1670.69,329.0
1672.01,329.33
1673.34,308.67
1674.66,327.67
1675.98,320.0
1677.3,318.0
1678.62,306.0
1679.94,305.0
1681.25,286.0
1682.57,282.33
1683.88,297.33
1685.2,253.33
1686.51,286.0
1687.82,258.33
1689.14,257.0
1690.45,280.0
1691.76,240.67
1693.06,265.67
1694.37,232.0
1695.68,215.33
1696.98,251.0
1698.29,226.33
1699.59,224.33
1700.89,220.67
1702.2,220.33
1703.5,206.33
1704.8,207.33
1706.1,207.33
1707.39,212.67
1708.69,238.67
1709.99,199.0
1711.28,200.33
1712.57,221.67
1713.87,178.33
1715.16,199.0
1716.45,187.0
1717.74,179.67
1719.03,186.33
1720.32,207.33
1721.6,167.0
1722.89,200.0
1724.18,176.0
1725.46,165.33
1726.74,189.67
1728.03,140.67
1729.31,162.0
1730.59,164.0
1731.87,172.33
1733.15,177.0
1734.42,168.0
1735.7,155.67
1736.97,147.0
1738.25,153.0
1739.52,138.0
1740.79,149.33
1742.07,133.67
1743.34,158.33
1744.61,163.33
1745.88,141.33
1747.14,176.33
1748.41,170.67
1749.68,138.0
1750.94,159.33
1752.2,135.33
1753.47,157.0
1754.73,152.0
1755.99,139.33
1757.25,124.0
1758.51,129.33
1759.77,135.0
1761.02,145.33
1762.28,162.67
1763.54,135.33
1764.79,163.33
1766.04,149.33
1767.29,140.33
1768.55,143.33
1769.8,163.33
1771.05,147.0
1772.29,119.0
1773.54,132.0
1774.79,135.33
1776.03,141.67
1777.28,145.67
1778.52,132.67
1779.76,101.0
1781.01,135.33
1782.25,102.67
1783.49,124.0
1784.72,122.67
1785.96,132.0
1787.2,106.33
1788.43,116.0
1789.67,135.67
1790.9,125.33
1792.14,120.0
1793.37,125.67
1794.6,143.0
1795.83,122.0
1797.06,105.33
1798.28,119.0
1799.51,136.67
1800.74,120.0
1801.96,135.33
1803.19,110.0
1804.41,115.0
1805.63,137.67
1806.85,119.0
1808.07,115.67
1809.29,138.0
1810.51,126.33
1811.73,137.0
1812.94,116.33
1814.16,115.33
1815.37,99.0
1816.59,133.0
1817.8,114.0
1819.01,121.33
1820.22,102.33
1821.43,120.33
1822.64,117.33
1823.85,105.33
1825.05,111.33
1826.26,109.0
1827.46,116.67
1828.67,94.0
1829.87,115.0
1831.07,112.33
1832.27,113.0
1833.47,112.67
1834.67,122.67
1835.87,113.67
1837.07,114.0
1838.26,101.33
1839.46,111.0
1840.65,121.67
1841.85,89.0
1843.04,105.33
1844.23,121.67
1845.42,118.0
1846.61,118.67
1847.8,124.33
1848.98,92.33
1850.17,94.67
1851.35,115.0
1852.54,95.0
1853.72,99.0
1854.9,105.0
1856.09,74.67
1857.27,120.0
1858.45,100.67
1859.62,102.0
1860.8,109.33
1861.98,111.33
1863.15,92.33
1864.33,113.67
1865.5,121.0
1866.68,82.67
1867.85,98.67
1869.02,97.67
1870.19,101.33
1871.36,106.33
1872.52,97.67
1873.69,96.0
1874.86,76.0
1876.02,87.0
1877.19,83.33
1878.35,88.67
1879.51,87.0
1880.67,86.0
1881.83,93.33
1882.99,120.33
1884.15,99.67
1885.31,91.33
1886.46,83.67
1887.62,120.33
1888.77,105.0
1889.92,108.67
1891.08,108.67
1892.23,105.0
1893.38,87.33