File: mAb_dilution_wasatch_plastic/45% Raw + 55% Buffer_data.csv
Wavenumber,Intensities
282.29,6745.67
284.39,6610.67
286.49,6545.0
288.59,6387.33
290.7,6241.0
292.79,6183.0
294.89,6052.0
296.99,5958.33
299.09,5866.33
301.18,5744.67
303.28,5795.33
305.37,5695.67
307.47,5659.0
309.56,5609.0
311.65,5648.67
313.74,5623.33
315.83,5604.0
317.92,5613.0
320.0,5621.67
322.09,5644.67
324.18,5639.33
326.26,5657.67
328.34,5637.33
330.43,5631.0
332.51,5615.67
334.59,5632.0
336.67,5596.67
338.75,5556.0
340.83,5584.67
342.9,5576.0
344.98,5580.0
347.05,5525.67
349.13,5493.67
351.2,5482.67
353.27,5481.33
355.35,5460.0
357.42,5475.0
359.49,5461.0
361.55,5506.67
363.62,5476.33
365.69,5561.33
367.75,5555.67
369.82,5591.33
371.88,5670.0
373.95,5702.0
376.01,5803.0
378.07,5852.33
380.13,5872.33
382.19,6003.0
384.25,6109.0
386.31,6180.0
388.36,6288.67
390.42,6282.67
392.47,6400.33
394.53,6415.33
396.58,6520.33
398.63,6586.33
400.68,6709.0
402.73,6886.0
404.78,6999.33
406.83,7023.0
408.87,6950.67
410.92,6823.0
412.97,6681.33
415.01,6563.0
417.05,6442.33
419.1,6360.67
421.14,6215.33
423.18,6172.67
425.22,6077.67
427.25,6034.33
429.29,5944.67
431.33,5886.67
433.36,5860.0
435.4,5881.33
437.43,5810.33
439.47,5782.33
441.5,5783.67
443.53,5767.33
445.56,5634.67
447.59,5583.67
449.62,5546.0
451.64,5474.0
453.67,5399.33
455.7,5347.0
457.72,5243.0
459.74,5241.33
461.77,5182.67
463.79,5161.67
465.81,5098.33
467.83,5070.33
469.85,5033.67
471.86,5021.67
473.88,4982.0
475.9,5000.33
477.91,4927.0
479.93,4948.67
481.94,4953.33
483.95,4924.33
485.96,4924.33
487.97,4943.67
489.98,4923.0
491.99,4884.33
494.0,4899.33
496.0,4826.0
498.01,4782.0
500.01,4711.67
502.02,4718.0
504.02,4614.67
506.02,4593.0
508.02,4598.0
510.02,4565.0
512.02,4538.67
514.02,4498.33
516.01,4503.33
518.01,4540.0
520.01,4474.0
522.0,4518.0
523.99,4546.0
525.99,4542.0
527.98,4536.33
529.97,4643.33
531.96,4720.67
533.94,4772.67
535.93,4852.0
537.92,4949.67
539.9,4919.67
541.89,4979.0
543.87,4939.0
545.85,4901.0
547.84,4811.0
549.82,4764.0
551.8,4743.67
553.78,4709.33
555.75,4669.0
557.73,4647.0
559.71,4650.0
561.68,4590.67
563.66,4555.0
565.63,4453.0
567.6,4453.0
569.57,4432.67
571.54,4359.67
573.51,4347.67
575.48,4292.0
577.45,4261.33
579.41,4253.67
581.38,4176.67
583.34,4166.0
585.31,4147.33
587.27,4108.67
589.23,4123.33
591.19,4080.33
593.15,4080.67
595.11,4049.0
597.07,4055.33
599.03,4054.0
600.98,4044.67
602.94,4101.0
604.89,4112.0
606.84,4204.0
608.8,4317.33
610.75,4556.0
612.7,5028.33
614.65,5936.0
616.6,7431.67
618.54,9812.33
620.49,11563.67
622.43,11114.67
624.38,9063.0
626.32,6978.67
628.27,5594.33
630.21,4842.33
632.15,4431.0
634.09,4188.0
636.03,3951.33
637.96,3821.33
639.9,3732.33
641.84,3660.33
643.77,3608.33
645.71,3557.67
647.64,3493.33
649.57,3502.0
651.5,3440.0
653.43,3432.67
655.36,3397.0
657.29,3391.67
659.22,3389.0
661.14,3359.0
663.07,3352.33
664.99,3317.33
666.92,3328.67
668.84,3303.0
670.76,3285.67
672.68,3259.33
674.6,3254.33
676.52,3232.33
678.44,3193.0
680.35,3239.0
682.27,3213.33
684.19,3236.67
686.1,3239.67
688.01,3211.0
689.92,3229.0
691.83,3227.67
693.74,3312.0
695.65,3358.67
697.56,3418.0
699.47,3472.0
701.38,3510.67
703.28,3523.67
705.19,3475.33
707.09,3430.0
708.99,3342.67
710.89,3315.67
712.79,3217.33
714.69,3207.0
716.59,3216.0
718.49,3175.33
720.39,3208.33
722.28,3177.0
724.18,3257.33
726.07,3275.67
727.96,3388.0
729.85,3479.33
731.74,3627.33
733.63,3865.33
735.52,4081.67
737.41,4286.67
739.3,4490.67
741.18,4602.0
743.07,4721.67
744.95,4876.33
746.84,4952.0
748.72,5138.33
750.6,5310.67
752.48,5499.0
754.36,5605.33
756.24,5845.67
758.12,5890.33
759.99,5857.33
761.87,5790.33
763.74,5733.33
765.62,5633.33
767.49,5579.0
769.36,5441.33
771.23,5328.33
773.1,5197.67
774.97,5156.33
776.84,5127.33
778.7,5232.0
780.57,5443.33
782.44,5724.67
784.3,6147.0
786.16,6662.33
788.02,7187.33
789.89,7725.0
791.75,8212.33
793.6,8670.0
795.46,8810.0
797.32,8684.67
799.18,8205.67
801.03,7610.67
802.89,6840.67
804.74,6238.33
806.59,5709.33
808.44,5403.0
810.29,5056.0
812.14,4826.67
813.99,4474.33
815.84,4254.0
817.69,4035.67
819.53,3823.33
821.38,3668.67
823.22,3581.67
825.06,3506.67
826.9,3464.33
828.75,3469.33
830.59,3555.0
832.42,3653.33
834.26,3799.67
836.1,3951.67
837.93,4067.67
839.77,4179.0
841.6,4198.0
843.44,4188.0
845.27,4032.0
847.1,3909.67
848.93,3794.33
850.76,3671.67
852.59,3629.0
854.42,3585.67
856.24,3528.33
858.07,3525.67
859.89,3504.67
861.72,3498.0
863.54,3463.0
865.36,3484.33
867.18,3412.33
869.0,3432.0
870.82,3402.33
872.64,3390.33
874.45,3316.33
876.27,3293.33
878.08,3279.33
879.9,3272.67
881.71,3260.0
883.52,3199.67
885.33,3225.0
887.14,3219.67
888.95,3207.33
890.76,3221.0
892.57,3256.67
894.37,3307.33
896.18,3328.67
897.98,3476.33
899.79,3609.0
901.59,3699.33
903.39,3791.67
905.19,3827.0
906.99,3711.67
908.79,3654.0
910.58,3481.67
912.38,3311.0
914.18,3232.33
915.97,3041.0
917.76,3002.0
919.56,2883.33
921.35,2836.0
923.14,2797.0
924.93,2799.33
926.72,2766.67
928.51,2705.67
930.29,2751.0
932.08,2736.33
933.86,2720.0
935.65,2761.33
937.43,2745.0
939.21,2718.67
940.99,2783.0
942.77,2808.67
944.55,2812.33
946.33,2793.33
948.11,2836.33
949.88,2810.67
951.66,2817.67
953.43,2838.67
955.21,2824.0
956.98,2896.67
958.75,2967.0
960.52,3016.0
962.29,3115.67
964.06,3160.33
965.82,3178.0
967.59,3169.33
969.36,3179.33
971.12,3203.33
972.88,3294.33
974.65,3409.33
976.41,3597.33
978.17,3847.67
979.93,4172.33
981.69,4505.33
983.45,5041.33
985.2,5752.0
986.96,6765.0
988.71,7893.67
990.47,9192.33
992.22,10951.67
993.97,14372.33
995.72,20843.67
997.47,31954.67
999.22,45739.67
1000.97,54162.0
1002.72,51318.33
1004.46,39424.0
1006.21,26362.67
1007.95,16762.33
1009.7,10912.33
1011.44,7748.33
1013.18,5999.33
1014.92,5176.33
1016.66,4794.33
1018.4,4819.33
1020.13,5232.0
1021.87,6023.33
1023.61,7357.0
1025.34,9429.67
1027.07,11928.67
1028.81,14360.0
1030.54,15723.0
1032.27,15801.67
1034.0,14330.67
1035.73,12100.67
1037.46,9835.0
1039.18,7947.0
1040.91,6620.67
1042.63,5622.0
1044.36,5058.67
1046.08,4628.67
1047.8,4331.0
1049.52,4097.0
1051.24,4023.33
1052.96,3884.33
1054.68,3862.67
1056.4,3870.33
1058.11,3839.67
1059.83,3913.33
1061.54,3924.33
1063.26,4049.0
1064.97,4155.33
1066.68,4267.33
1068.39,4302.33
1070.1,4409.67
1071.81,4325.67
1073.51,4282.0
1075.22,4193.33
1076.93,4098.0
1078.63,4010.67
1080.33,3995.33
1082.04,3923.33
1083.74,3874.33
1085.44,3848.67
1087.14,3758.33
1088.84,3737.0
1090.53,3778.0
1092.23,3798.0
1093.93,3788.33
1095.62,3802.0
1097.32,3790.67
1099.01,3736.0
1100.7,3622.33
1102.39,3503.33
1104.08,3316.0
1105.77,3124.0
1107.46,2974.33
1109.15,2821.33
1110.83,2741.33
1112.52,2636.33
1114.2,2539.67
1115.88,2510.67
1117.57,2442.67
1119.25,2313.67
1120.93,2280.67
1122.61,2173.0
1124.28,2126.33
1125.96,2131.33
1127.64,2137.33
1129.31,2107.33
1130.99,2102.33
1132.66,2123.67
1134.33,2173.0
1136.01,2198.67
1137.68,2289.33
1139.35,2423.67
1141.01,2586.0
1142.68,2811.0
1144.35,3115.0
1146.01,3460.33
1147.68,3980.0
1149.34,4789.0
1151.01,5820.33
1152.67,6942.0
1154.33,7635.67
1155.99,7711.67
1157.65,7227.67
1159.3,6344.67
1160.96,5542.33
1162.62,4934.33
1164.27,4504.33
1165.93,4293.0
1167.58,4236.33
1169.23,4287.67
1170.88,4451.33
1172.53,4793.0
1174.18,5306.67
1175.83,6242.33
1177.48,7397.67
1179.12,8565.67
1180.77,9482.0
1182.41,9703.67
1184.06,9412.33
1185.7,8804.67
1187.34,8394.67
1188.98,8169.67
1190.62,8244.33
1192.26,8356.0
1193.9,8579.0
1195.53,8733.0
1197.17,8840.33
1198.8,8921.33
1200.44,8852.0
1202.07,8621.33
1203.7,8264.67
1205.33,7685.0
1206.96,7105.67
1208.59,6415.33
1210.22,5798.0
1211.85,5243.33
1213.47,4809.33
1215.1,4392.67
1216.72,4117.33
1218.34,3897.0
1219.96,3728.67
1221.59,3595.33
1223.21,3491.0
1224.83,3376.67
1226.44,3246.67
1228.06,3147.67
1229.68,3002.0
1231.29,2913.33
1232.91,2824.0
1234.52,2730.67
1236.13,2681.33
1237.74,2609.67
1239.35,2588.0
1240.96,2592.0
1242.57,2555.33
1244.18,2554.33
1245.78,2539.67
1247.39,2504.67
1248.99,2498.0
1250.6,2482.0
1252.2,2432.0
1253.8,2416.33
1255.4,2377.0
1257.0,2377.0
1258.6,2354.33
1260.2,2344.0
1261.8,2351.0
1263.39,2308.67
1264.99,2328.67
1266.58,2312.33
1268.17,2320.0
1269.77,2281.0
1271.36,2317.33
1272.95,2278.33
1274.54,2298.33
1276.12,2290.67
1277.71,2323.33
1279.3,2334.33
1280.88,2292.67
1282.47,2300.0
1284.05,2360.0
1285.63,2366.33
1287.21,2361.67
1288.79,2444.67
1290.37,2507.33
1291.95,2572.67
1293.53,2621.0
1295.1,2656.67
1296.68,2695.67
1298.25,2775.33
1299.83,2777.33
1301.4,2833.67
1302.97,2897.33
1304.54,2908.33
1306.11,2912.33
1307.68,2961.33
1309.25,2971.67
1310.81,3035.0
1312.38,3067.67
1313.94,3149.0
1315.51,3241.33
1317.07,3360.33
1318.63,3484.33
1320.19,3587.0
1321.75,3644.33
1323.31,3724.67
1324.87,3742.67
1326.43,3803.67
1327.98,3805.33
1329.54,3785.67
1331.09,3748.67
1332.64,3656.33
1334.2,3512.0
1335.75,3417.0
1337.3,3206.0
1338.85,3036.33
1340.4,2908.33
1341.94,2809.67
1343.49,2705.67
1345.03,2580.0
1346.58,2553.0
1348.12,2449.33
1349.66,2389.67
1351.21,2355.33
1352.75,2303.33
1354.29,2300.67
1355.82,2286.67
1357.36,2255.33
1358.9,2280.67
1360.43,2279.33
1361.97,2271.67
1363.5,2265.67
1365.03,2266.67
1366.57,2212.33
1368.1,2213.33
1369.63,2212.0
1371.16,2208.33
1372.68,2130.0
1374.21,2094.67
1375.74,2050.0
1377.26,1908.33
1378.78,1874.33
1380.31,1785.67
1381.83,1705.0
1383.35,1655.33
1384.87,1550.33
1386.39,1512.67
1387.91,1494.67
1389.42,1438.67
1390.94,1432.67
1392.46,1405.0
1393.97,1420.33
1395.48,1403.33
1397.0,1413.33
1398.51,1389.67
1400.02,1389.0
1401.53,1378.0
1403.04,1360.67
1404.54,1339.0
1406.05,1348.0
1407.55,1339.0
1409.06,1346.33
1410.56,1331.0
1412.06,1317.67
1413.57,1294.67
1415.07,1316.33
1416.57,1270.67
1418.07,1284.33
1419.56,1304.67
1421.06,1296.0
1422.56,1301.33
1424.05,1307.67
1425.54,1317.33
1427.04,1322.67
1428.53,1369.33
1430.02,1439.0
1431.51,1541.67
1433.0,1657.0
1434.49,1770.33
1435.97,1945.0
1437.46,2112.33
1438.94,2296.33
1440.43,2474.0
1441.91,2659.0
1443.39,2883.0
1444.88,3102.0
1446.36,3288.33
1447.83,3437.33
1449.31,3542.67
1450.79,3537.67
1452.27,3460.33
1453.74,3274.33
1455.22,2951.33
1456.69,2590.67
1458.16,2257.0
1459.63,1889.0
1461.1,1712.33
1462.57,1530.33
1464.04,1468.0
1465.51,1401.0
1466.98,1333.0
1468.44,1303.33
1469.91,1285.67
1471.37,1225.0
1472.83,1226.67
1474.3,1207.0
1475.76,1164.0
1477.22,1155.33
1478.67,1160.33
1480.13,1153.0
1481.59,1139.0
1483.05,1145.67
1484.5,1133.0
1485.95,1163.0
1487.41,1170.67
1488.86,1209.0
1490.31,1235.0
1491.76,1271.67
1493.21,1308.67
1494.66,1324.67
1496.11,1246.67
1497.55,1241.67
1499.0,1153.0
1500.44,1125.33
1501.88,1109.67
1503.33,1103.33
1504.77,1097.0
1506.21,1082.33
1507.65,1100.0
1509.09,1069.33
1510.52,1085.0
1511.96,1073.67
1513.4,1070.0
1514.83,1091.0
1516.26,1075.67
1517.7,1042.0
1519.13,1079.33
1520.56,1068.33
1521.99,1046.67
1523.42,1051.0
1524.85,1059.33
1526.27,1072.0
1527.7,1049.33
1529.12,1075.33
1530.55,1089.0
1531.97,1082.0
1533.39,1053.0
1534.81,1087.33
1536.23,1075.67
1537.65,1102.33
1539.07,1051.67
1540.49,1064.0
1541.9,1075.67
1543.32,1093.33
1544.73,1058.0
1546.15,1102.67
1547.56,1104.0
1548.97,1152.67
1550.38,1138.67
1551.79,1163.0
1553.2,1201.33
1554.61,1229.67
1556.01,1215.0
1557.42,1202.0
1558.82,1207.33
1560.22,1198.0
1561.63,1207.67
1563.03,1233.0
1564.43,1265.33
1565.83,1306.33
1567.23,1355.67
1568.63,1384.67
1570.02,1473.0
1571.42,1545.0
1572.81,1632.67
1574.21,1794.33
1575.6,1951.67
1576.99,2266.67
1578.38,2636.0
1579.77,3158.67
1581.16,3757.33
1582.55,4288.0
1583.94,4425.33
1585.32,4128.33
1586.71,3659.0
1588.09,3199.33
1589.47,2922.33
1590.86,2864.0
1592.24,2956.33
1593.62,3243.33
1595.0,3704.0
1596.38,4332.33
1597.75,5236.0
1599.13,6315.0
1600.51,7273.67
1601.88,7948.33
1603.25,8026.67
1604.63,7557.0
1606.0,6672.0
1607.37,5555.33
1608.74,4576.33
1610.11,3751.33
1611.47,3074.33
1612.84,2673.0
1614.21,2378.0
1615.57,2111.0
1616.93,1992.0
1618.3,1867.0
1619.66,1779.67
1621.02,1719.0
1622.38,1649.0
1623.74,1635.0
1625.1,1594.67
1626.45,1591.0
1627.81,1537.33
1629.16,1530.33
1630.52,1505.0
1631.87,1492.33
1633.22,1466.67
1634.57,1429.33
1635.92,1420.33
1637.27,1403.67
1638.62,1369.67
1639.97,1372.0
1641.32,1322.33
1642.66,1327.67
1644.01,1324.0
1645.35,1324.67
1646.69,1315.0
1648.03,1287.0
1649.37,1288.67
1650.71,1293.33
1652.05,1294.67
1653.39,1269.33
1654.73,1240.67
1656.06,1226.33
1657.4,1243.0
1658.73,1222.33
1660.06,1207.0
1661.39,1201.33
1662.72,1206.0
1664.05,1164.67
1665.38,1198.67
1666.71,1140.33
1668.04,1149.0
1669.36,1152.67
1670.69,1151.67
1672.01,1127.67
1673.34,1115.0
1674.66,1111.0
1675.98,1084.33
1677.3,1076.33
1678.62,1065.33
1679.94,1053.33
1681.25,1037.67
1682.57,1008.33
1683.88,1018.0
1685.2,968.67
1686.51,983.0
1687.82,955.67
1689.14,919.0
1690.45,954.67
1691.76,872.33
1693.06,901.33
1694.37,839.33
1695.68,834.33
1696.98,851.0
1698.29,820.0
1699.59,811.67
1700.89,801.67
1702.2,768.0
1703.5,752.0
1704.8,750.0
1706.1,716.0
1707.39,759.33
1708.69,722.33
1709.99,703.67
1711.28,677.67
1712.57,691.0
1713.87,686.67
1715.16,656.0
1716.45,678.33
1717.74,653.0
1719.03,653.33
1720.32,660.67
1721.6,611.67
1722.89,627.67
1724.18,612.67
1725.46,591.0
1726.74,619.0
1728.03,578.33
1729.31,593.33
1730.59,585.67
1731.87,574.67
1733.15,578.67
1734.42,578.0
1735.7,565.67
1736.97,563.33
1738.25,573.33
1739.52,519.0
1740.79,554.33
1742.07,508.33
1743.34,549.67
1744.61,539.0
1745.88,516.33
1747.14,537.0
1748.41,529.0
1749.68,512.67
1750.94,507.33
1752.2,489.67
1753.47,534.0
1754.73,508.67
1755.99,482.33
1757.25,455.33
1758.51,475.0
1759.77,474.33
1761.02,482.33
1762.28,479.33
1763.54,472.0
1764.79,489.67
1766.04,464.0
1767.29,468.33
1768.55,454.33
1769.8,481.33
1771.05,481.0
1772.29,444.33
1773.54,459.33
1774.79,455.33
1776.03,454.33
1777.28,463.33
1778.52,435.33
1779.76,420.33
1781.01,435.0
1782.25,424.33
1783.49,433.0
1784.72,418.67
1785.96,413.0
1787.2,425.0
1788.43,416.33
1789.67,419.0
1790.9,431.33
1792.14,417.67
1793.37,414.33
1794.6,425.33
1795.83,392.33
1797.06,391.67
1798.28,400.0
1799.51,416.33
1800.74,407.67
1801.96,415.0
1803.19,416.33
1804.41,402.33
1805.63,417.67
1806.85,409.33
1808.07,421.33
1809.29,410.0
1810.51,373.0
1811.73,419.0
1812.94,391.0
1814.16,397.33
1815.37,381.33
1816.59,382.33
1817.8,370.67
1819.01,364.67
1820.22,376.0
1821.43,368.33
1822.64,366.0
1823.85,373.33
1825.05,364.33
1826.26,378.33
1827.46,347.0
1828.67,360.0
1829.87,385.0
1831.07,349.0
1832.27,352.0
1833.47,353.33
1834.67,345.33
1835.87,342.67
1837.07,354.33
1838.26,335.33
1839.46,350.67
1840.65,354.33
1841.85,329.67
1843.04,330.33
1844.23,342.67
1845.42,335.67
1846.61,345.33
1847.8,354.33
1848.98,327.67
1850.17,327.0
1851.35,325.33
1852.54,317.67
1853.72,321.67
1854.9,306.33
1856.09,300.0
1857.27,339.0
1858.45,329.0
1859.62,334.0
1860.8,320.33
1861.98,324.0
1863.15,289.67
1864.33,344.33
1865.5,316.33
1866.68,302.67
1867.85,334.0
1869.02,301.33
1870.19,343.33
1871.36,339.0
1872.52,315.67
1873.69,319.0
1874.86,312.67
1876.02,319.0
1877.19,304.33
1878.35,302.33
1879.51,306.67
1880.67,302.67
1881.83,310.0
1882.99,319.0
1884.15,294.67
1885.31,294.0
1886.46,292.67
1887.62,313.67
1888.77,299.67
1889.92,307.67
1891.08,302.33
1892.23,311.33
1893.38,301.0