File: mAb_dilution_wasatch_plastic/85% Raw + 15% Buffer_data.csv
Wavenumber,Intensities
282.29,6481.0
284.39,6398.0
286.49,6296.0
288.59,6211.0
290.7,6048.0
292.79,5978.0
294.89,5836.0
296.99,5748.0
299.09,5661.0
301.18,5672.0
303.28,5574.0
305.37,5529.0
307.47,5487.0
309.56,5536.0
311.65,5460.0
313.74,5346.0
315.83,5400.0
317.92,5380.0
320.0,5426.0
322.09,5438.0
324.18,5418.0
326.26,5384.0
328.34,5422.0
330.43,5452.0
332.51,5308.0
334.59,5441.0
336.67,5450.0
338.75,5381.0
340.83,5303.0
342.9,5381.0
344.98,5342.0
347.05,5342.0
349.13,5320.0
351.2,5361.0
353.27,5276.0
355.35,5230.0
357.42,5201.0
359.49,5232.0
361.55,5354.0
363.62,5312.0
365.69,5274.0
367.75,5342.0
369.82,5361.0
371.88,5411.0
373.95,5445.0
376.01,5562.0
378.07,5528.0
380.13,5623.0
382.19,5684.0
384.25,5733.0
386.31,5817.0
388.36,5914.0
390.42,5886.0
392.47,6003.0
394.53,6007.0
396.58,6011.0
398.63,6155.0
400.68,6215.0
402.73,6291.0
404.78,6349.0
406.83,6470.0
408.87,6417.0
410.92,6340.0
412.97,6252.0
415.01,6185.0
417.05,6003.0
419.1,5987.0
421.14,5863.0
423.18,5829.0
425.22,5783.0
427.25,5790.0
429.29,5661.0
431.33,5668.0
433.36,5597.0
435.4,5612.0
437.43,5597.0
439.47,5585.0
441.5,5585.0
443.53,5543.0
445.56,5500.0
447.59,5421.0
449.62,5380.0
451.64,5270.0
453.67,5295.0
455.7,5179.0
457.72,5228.0
459.74,5130.0
461.77,5156.0
463.79,5055.0
465.81,5038.0
467.83,5011.0
469.85,4898.0
471.86,4909.0
473.88,4951.0
475.9,4944.0
477.91,4879.0
479.93,4879.0
481.94,4879.0
483.95,4906.0
485.96,4853.0
487.97,4892.0
489.98,4811.0
491.99,4780.0
494.0,4841.0
496.0,4758.0
498.01,4727.0
500.01,4666.0
502.02,4598.0
504.02,4556.0
506.02,4469.0
508.02,4487.0
510.02,4468.0
512.02,4465.0
514.02,4408.0
516.01,4405.0
518.01,4454.0
520.01,4344.0
522.0,4299.0
523.99,4408.0
525.99,4317.0
527.98,4351.0
529.97,4469.0
531.96,4522.0
533.94,4572.0
535.93,4640.0
537.92,4689.0
539.9,4647.0
541.89,4792.0
543.87,4697.0
545.85,4628.0
547.84,4606.0
549.82,4529.0
551.8,4507.0
553.78,4564.0
555.75,4470.0
557.73,4465.0
559.71,4292.0
561.68,4347.0
563.66,4370.0
565.63,4310.0
567.6,4306.0
569.57,4257.0
571.54,4268.0
573.51,4226.0
575.48,4139.0
577.45,4055.0
579.41,4024.0
581.38,4014.0
583.34,3991.0
585.31,3942.0
587.27,3974.0
589.23,4010.0
591.19,3981.0
593.15,3926.0
595.11,3915.0
597.07,3952.0
599.03,3903.0
600.98,3933.0
602.94,3956.0
604.89,3858.0
606.84,4007.0
608.8,4100.0
610.75,4236.0
612.7,4701.0
614.65,5321.0
616.6,6459.0
618.54,8228.0
620.49,9435.0
622.43,9177.0
624.38,7618.0
626.32,6048.0
628.27,4989.0
630.21,4435.0
632.15,4165.0
634.09,4006.0
636.03,3804.0
637.96,3717.0
639.9,3634.0
641.84,3576.0
643.77,3463.0
645.71,3497.0
647.64,3455.0
649.57,3410.0
651.5,3478.0
653.43,3421.0
655.36,3360.0
657.29,3318.0
659.22,3380.0
661.14,3345.0
663.07,3323.0
664.99,3326.0
666.92,3261.0
668.84,3246.0
670.76,3281.0
672.68,3246.0
674.6,3185.0
676.52,3220.0
678.44,3201.0
680.35,3201.0
682.27,3212.0
684.19,3129.0
686.1,3174.0
688.01,3171.0
689.92,3170.0
691.83,3212.0
693.74,3252.0
695.65,3284.0
697.56,3277.0
699.47,3383.0
701.38,3417.0
703.28,3349.0
705.19,3318.0
707.09,3319.0
708.99,3216.0
710.89,3193.0
712.79,3155.0
714.69,3162.0
716.59,3162.0
718.49,3162.0
720.39,3148.0
722.28,3125.0
724.18,3121.0
726.07,3163.0
727.96,3288.0
729.85,3333.0
731.74,3443.0
733.63,3561.0
735.52,3732.0
737.41,3928.0
739.3,4154.0
741.18,4139.0
743.07,4233.0
744.95,4317.0
746.84,4422.0
748.72,4537.0
750.6,4613.0
752.48,4759.0
754.36,4947.0
756.24,5035.0
758.12,5126.0
759.99,5096.0
761.87,4955.0
763.74,4976.0
765.62,4921.0
767.49,4868.0
769.36,4757.0
771.23,4625.0
773.1,4503.0
774.97,4439.0
776.84,4453.0
778.7,4531.0
780.57,4705.0
782.44,4864.0
784.3,5263.0
786.16,5606.0
788.02,5911.0
789.89,6417.0
791.75,6732.0
793.6,7044.0
795.46,7125.0
797.32,7089.0
799.18,6668.0
801.03,6246.0
802.89,5698.0
804.74,5228.0
806.59,4896.0
808.44,4681.0
810.29,4473.0
812.14,4222.0
813.99,3970.0
815.84,3755.0
817.69,3624.0
819.53,3471.0
821.38,3305.0
823.22,3322.0
825.06,3276.0
826.9,3204.0
828.75,3246.0
830.59,3224.0
832.42,3372.0
834.26,3451.0
836.1,3577.0
837.93,3649.0
839.77,3668.0
841.6,3744.0
843.44,3653.0
845.27,3657.0
847.1,3550.0
848.93,3417.0
850.76,3372.0
852.59,3324.0
854.42,3250.0
856.24,3269.0
858.07,3185.0
859.89,3205.0
861.72,3140.0
863.54,3114.0
865.36,3140.0
867.18,3094.0
869.0,3109.0
870.82,3053.0
872.64,3047.0
874.45,3027.0
876.27,3053.0
878.08,3015.0
879.9,2956.0
881.71,2973.0
883.52,2946.0
885.33,2916.0
887.14,2935.0
888.95,2939.0
890.76,2961.0
892.57,2935.0
894.37,3011.0
896.18,3048.0
897.98,3110.0
899.79,3249.0
901.59,3296.0
903.39,3311.0
905.19,3318.0
906.99,3284.0
908.79,3227.0
910.58,3106.0
912.38,2950.0
914.18,2905.0
915.97,2726.0
917.76,2741.0
919.56,2655.0
921.35,2616.0
923.14,2600.0
924.93,2620.0
926.72,2597.0
928.51,2585.0
930.29,2521.0
932.08,2525.0
933.86,2506.0
935.65,2509.0
937.43,2559.0
939.21,2464.0
940.99,2536.0
942.77,2536.0
944.55,2510.0
946.33,2563.0
948.11,2589.0
949.88,2559.0
951.66,2570.0
953.43,2566.0
955.21,2597.0
956.98,2650.0
958.75,2654.0
960.52,2654.0
962.29,2772.0
964.06,2791.0
965.82,2829.0
967.59,2806.0
969.36,2825.0
971.12,2836.0
972.88,2854.0
974.65,2996.0
976.41,3094.0
978.17,3223.0
979.93,3507.0
981.69,3740.0
983.45,4086.0
985.2,4632.0
986.96,5327.0
988.71,6174.0
990.47,7081.0
992.22,8467.0
993.97,11118.0
995.72,15898.0
997.47,24095.0
999.22,34259.0
1000.97,40536.0
1002.72,38227.0
1004.46,29399.0
1006.21,19759.0
1007.95,12769.0
1009.7,8509.0
1011.44,6168.0
1013.18,4902.0
1014.92,4219.0
1016.66,4017.0
1018.4,3980.0
1020.13,4363.0
1021.87,4910.0
1023.61,5863.0
1025.34,7361.0
1027.07,9197.0
1028.81,10960.0
1030.54,12021.0
1032.27,12009.0
1034.0,10897.0
1035.73,9289.0
1037.46,7571.0
1039.18,6223.0
1040.91,5224.0
1042.63,4503.0
1044.36,4085.0
1046.08,3861.0
1047.8,3550.0
1049.52,3514.0
1051.24,3371.0
1052.96,3271.0
1054.68,3269.0
1056.4,3300.0
1058.11,3216.0
1059.83,3321.0
1061.54,3300.0
1063.26,3388.0
1064.97,3497.0
1066.68,3527.0
1068.39,3588.0
1070.1,3638.0
1071.81,3618.0
1073.51,3591.0
1075.22,3505.0
1076.93,3387.0
1078.63,3386.0
1080.33,3383.0
1082.04,3246.0
1083.74,3246.0
1085.44,3220.0
1087.14,3189.0
1088.84,3216.0
1090.53,3232.0
1092.23,3186.0
1093.93,3182.0
1095.62,3186.0
1097.32,3197.0
1099.01,3133.0
1100.7,3053.0
1102.39,3000.0
1104.08,2851.0
1105.77,2692.0
1107.46,2612.0
1109.15,2498.0
1110.83,2380.0
1112.52,2297.0
1114.2,2351.0
1115.88,2206.0
1117.57,2179.0
1119.25,2077.0
1120.93,2043.0
1122.61,1984.0
1124.28,2039.0
1125.96,1959.0
1127.64,1912.0
1129.31,1929.0
1130.99,1902.0
1132.66,1925.0
1134.33,1959.0
1136.01,1978.0
1137.68,2066.0
1139.35,2208.0
1141.01,2308.0
1142.68,2407.0
1144.35,2641.0
1146.01,2848.0
1147.68,3330.0
1149.34,3876.0
1151.01,4621.0
1152.67,5384.0
1154.33,5972.0
1155.99,6044.0
1157.65,5688.0
1159.3,4979.0
1160.96,4454.0
1162.62,3964.0
1164.27,3664.0
1165.93,3501.0
1167.58,3474.0
1169.23,3478.0
1170.88,3626.0
1172.53,3886.0
1174.18,4325.0
1175.83,4962.0
1177.48,5790.0
1179.12,6663.0
1180.77,7245.0
1182.41,7476.0
1184.06,7203.0
1185.7,6857.0
1187.34,6492.0
1188.98,6424.0
1190.62,6443.0
1192.26,6534.0
1193.9,6580.0
1195.53,6785.0
1197.17,6831.0
1198.8,6872.0
1200.44,6861.0
1202.07,6701.0
1203.7,6489.0
1205.33,6037.0
1206.96,5601.0
1208.59,5099.0
1210.22,4712.0
1211.85,4203.0
1213.47,3854.0
1215.1,3668.0
1216.72,3368.0
1218.34,3219.0
1219.96,3114.0
1221.59,3081.0
1223.21,2950.0
1224.83,2916.0
1226.44,2749.0
1228.06,2704.0
1229.68,2608.0
1231.29,2521.0
1232.91,2491.0
1234.52,2434.0
1236.13,2468.0
1237.74,2335.0
1239.35,2297.0
1240.96,2290.0
1242.57,2365.0
1244.18,2240.0
1245.78,2297.0
1247.39,2274.0
1248.99,2244.0
1250.6,2209.0
1252.2,2172.0
1253.8,2172.0
1255.4,2149.0
1257.0,2092.0
1258.6,2183.0
1260.2,2145.0
1261.8,2104.0
1263.39,2083.0
1264.99,2084.0
1266.58,2048.0
1268.17,2047.0
1269.77,2077.0
1271.36,2126.0
1272.95,2107.0
1274.54,2100.0
1276.12,2096.0
1277.71,2020.0
1279.3,2072.0
1280.88,2035.0
1282.47,2056.0
1284.05,2126.0
1285.63,2085.0
1287.21,2088.0
1288.79,2131.0
1290.37,2195.0
1291.95,2233.0
1293.53,2278.0
1295.1,2303.0
1296.68,2289.0
1298.25,2312.0
1299.83,2434.0
1301.4,2411.0
1302.97,2452.0
1304.54,2426.0
1306.11,2486.0
1307.68,2536.0
1309.25,2552.0
1310.81,2612.0
1312.38,2636.0
1313.94,2701.0
1315.51,2745.0
1317.07,2822.0
1318.63,2901.0
1320.19,2977.0
1321.75,3056.0
1323.31,3089.0
1324.87,3079.0
1326.43,3090.0
1327.98,3091.0
1329.54,3106.0
1331.09,3041.0
1332.64,2996.0
1334.2,2897.0
1335.75,2829.0
1337.3,2694.0
1338.85,2631.0
1340.4,2527.0
1341.94,2343.0
1343.49,2293.0
1345.03,2282.0
1346.58,2168.0
1348.12,2073.0
1349.66,2055.0
1351.21,2000.0
1352.75,2001.0
1354.29,1990.0
1355.82,1928.0
1357.36,1998.0
1358.9,1944.0
1360.43,1917.0
1361.97,1947.0
1363.5,1900.0
1365.03,1921.0
1366.57,2004.0
1368.1,1944.0
1369.63,1894.0
1371.16,1895.0
1372.68,1837.0
1374.21,1841.0
1375.74,1724.0
1377.26,1690.0
1378.78,1659.0
1380.31,1557.0
1381.83,1546.0
1383.35,1518.0
1384.87,1423.0
1386.39,1359.0
1387.91,1329.0
1389.42,1348.0
1390.94,1322.0
1392.46,1326.0
1393.97,1276.0
1395.48,1298.0
1397.0,1272.0
1398.51,1303.0
1400.02,1313.0
1401.53,1253.0
1403.04,1272.0
1404.54,1227.0
1406.05,1272.0
1407.55,1266.0
1409.06,1257.0
1410.56,1253.0
1412.06,1236.0
1413.57,1263.0
1415.07,1247.0
1416.57,1188.0
1418.07,1232.0
1419.56,1212.0
1421.06,1258.0
1422.56,1238.0
1424.05,1196.0
1425.54,1242.0
1427.04,1287.0
1428.53,1287.0
1430.02,1329.0
1431.51,1394.0
1433.0,1458.0
1434.49,1587.0
1435.97,1712.0
1437.46,1780.0
1438.94,1940.0
1440.43,2115.0
1441.91,2237.0
1443.39,2381.0
1444.88,2518.0
1446.36,2718.0
1447.83,2875.0
1449.31,2875.0
1450.79,2893.0
1452.27,2844.0
1453.74,2616.0
1455.22,2384.0
1456.69,2130.0
1458.16,1932.0
1459.63,1640.0
1461.1,1515.0
1462.57,1401.0
1464.04,1333.0
1465.51,1291.0
1466.98,1294.0
1468.44,1181.0
1469.91,1237.0
1471.37,1158.0
1472.83,1139.0
1474.3,1139.0
1475.76,1113.0
1477.22,1055.0
1478.67,1060.0
1480.13,1128.0
1481.59,1075.0
1483.05,1064.0
1484.5,1071.0
1485.95,1078.0
1487.41,1086.0
1488.86,1128.0
1490.31,1078.0
1491.76,1109.0
1493.21,1177.0
1494.66,1143.0
1496.11,1128.0
1497.55,1098.0
1499.0,1082.0
1500.44,1029.0
1501.88,1014.0
1503.33,995.0
1504.77,1010.0
1506.21,1010.0
1507.65,1040.0
1509.09,953.0
1510.52,972.0
1511.96,1036.0
1513.4,968.0
1514.83,1006.0
1516.26,953.0
1517.7,1003.0
1519.13,994.0
1520.56,976.0
1521.99,1013.0
1523.42,1002.0
1524.85,982.0
1526.27,998.0
1527.7,976.0
1529.12,946.0
1530.55,957.0
1531.97,994.0
1533.39,982.0
1534.81,988.0
1536.23,994.0
1537.65,1044.0
1539.07,987.0
1540.49,979.0
1541.9,1025.0
1543.32,1018.0
1544.73,985.0
1546.15,1014.0
1547.56,1063.0
1548.97,1097.0
1550.38,1065.0
1551.79,1109.0
1553.2,1120.0
1554.61,1151.0
1556.01,1203.0
1557.42,1136.0
1558.82,1105.0
1560.22,1102.0
1561.63,1173.0
1563.03,1139.0
1564.43,1162.0
1565.83,1203.0
1567.23,1173.0
1568.63,1218.0
1570.02,1307.0
1571.42,1351.0
1572.81,1447.0
1574.21,1560.0
1575.6,1720.0
1576.99,1856.0
1578.38,2100.0
1579.77,2479.0
1581.16,2969.0
1582.55,3324.0
1583.94,3398.0
1585.32,3288.0
1586.71,2924.0
1588.09,2542.0
1589.47,2335.0
1590.86,2335.0
1592.24,2423.0
1593.62,2593.0
1595.0,3003.0
1596.38,3360.0
1597.75,4051.0
1599.13,4818.0
1600.51,5373.0
1601.88,5946.0
1603.25,5995.0
1604.63,5604.0
1606.0,4991.0
1607.37,4260.0
1608.74,3534.0
1610.11,3007.0
1611.47,2532.0
1612.84,2191.0
1614.21,2073.0
1615.57,1918.0
1616.93,1773.0
1618.3,1690.0
1619.66,1663.0
1621.02,1576.0
1622.38,1553.0
1623.74,1527.0
1625.1,1484.0
1626.45,1488.0
1627.81,1452.0
1629.16,1427.0
1630.52,1437.0
1631.87,1412.0
1633.22,1371.0
1634.57,1400.0
1635.92,1348.0
1637.27,1389.0
1638.62,1360.0
1639.97,1317.0
1641.32,1329.0
1642.66,1344.0
1644.01,1294.0
1645.35,1332.0
1646.69,1279.0
1648.03,1326.0
1649.37,1283.0
1650.71,1344.0
1652.05,1287.0
1653.39,1283.0
1654.73,1325.0
1656.06,1287.0
1657.4,1249.0
1658.73,1239.0
1660.06,1272.0
1661.39,1209.0
1662.72,1287.0
1664.05,1228.0
1665.38,1264.0
1666.71,1215.0
1668.04,1158.0
1669.36,1174.0
1670.69,1177.0
1672.01,1169.0
1673.34,1143.0
1674.66,1155.0
1675.98,1116.0
1677.3,1078.0
1678.62,1056.0
1679.94,1029.0
1681.25,1051.0
1682.57,991.0
1683.88,1021.0
1685.2,968.0
1686.51,960.0
1687.82,923.0
1689.14,900.0
1690.45,923.0
1691.76,873.0
1693.06,877.0
1694.37,844.0
1695.68,816.0
1696.98,876.0
1698.29,786.0
1699.59,779.0
1700.89,740.0
1702.2,775.0
1703.5,736.0
1704.8,714.0
1706.1,707.0
1707.39,702.0
1708.69,695.0
1709.99,684.0
1711.28,665.0
1712.57,661.0
1713.87,660.0
1715.16,619.0
1716.45,634.0
1717.74,627.0
1719.03,645.0
1720.32,631.0
1721.6,608.0
1722.89,584.0
1724.18,569.0
1725.46,627.0
1726.74,596.0
1728.03,600.0
1729.31,577.0
1730.59,551.0
1731.87,562.0
1733.15,524.0
1734.42,558.0
1735.7,544.0
1736.97,501.0
1738.25,541.0
1739.52,497.0
1740.79,547.0
1742.07,501.0
1743.34,501.0
1744.61,531.0
1745.88,512.0
1747.14,551.0
1748.41,490.0
1749.68,474.0
1750.94,489.0
1752.2,471.0
1753.47,479.0
1754.73,418.0
1755.99,452.0
1757.25,463.0
1758.51,445.0
1759.77,437.0
1761.02,467.0
1762.28,429.0
1763.54,440.0
1764.79,459.0
1766.04,437.0
1767.29,459.0
1768.55,436.0
1769.8,429.0
1771.05,433.0
1772.29,403.0
1773.54,414.0
1774.79,417.0
1776.03,420.0
1777.28,410.0
1778.52,379.0
1779.76,375.0
1781.01,433.0
1782.25,414.0
1783.49,368.0
1784.72,383.0
1785.96,414.0
1787.2,393.0
1788.43,391.0
1789.67,381.0
1790.9,361.0
1792.14,389.0
1793.37,364.0
1794.6,368.0
1795.83,394.0
1797.06,378.0
1798.28,395.0
1799.51,372.0
1800.74,361.0
1801.96,353.0
1803.19,384.0
1804.41,369.0
1805.63,391.0
1806.85,364.0
1808.07,368.0
1809.29,404.0
1810.51,365.0
1811.73,334.0
1812.94,349.0
1814.16,359.0
1815.37,391.0
1816.59,345.0
1817.8,365.0
1819.01,372.0
1820.22,349.0
1821.43,357.0
1822.64,361.0
1823.85,334.0
1825.05,355.0
1826.26,342.0
1827.46,366.0
1828.67,323.0
1829.87,315.0
1831.07,326.0
1832.27,296.0
1833.47,346.0
1834.67,330.0
1835.87,326.0
1837.07,322.0
1838.26,340.0
1839.46,359.0
1840.65,311.0
1841.85,335.0
1843.04,304.0
1844.23,312.0
1845.42,334.0
1846.61,353.0
1847.8,300.0
1848.98,292.0
1850.17,365.0
1851.35,292.0
1852.54,285.0
1853.72,307.0
1854.9,331.0
1856.09,319.0
1857.27,288.0
1858.45,307.0
1859.62,300.0
1860.8,338.0
1861.98,353.0
1863.15,327.0
1864.33,304.0
1865.5,313.0
1866.68,315.0
1867.85,285.0
1869.02,292.0
1870.19,319.0
1871.36,300.0
1872.52,311.0
1873.69,277.0
1874.86,304.0
1876.02,274.0
1877.19,264.0
1878.35,243.0
1879.51,285.0
1880.67,285.0
1881.83,296.0
1882.99,319.0
1884.15,304.0
1885.31,315.0
1886.46,313.0
1887.62,284.0
1888.77,239.0
1889.92,289.0
1891.08,270.0
1892.23,283.0
1893.38,269.0