File: mAb_dilution_wasatch_plastic/Empty_96_well_plate_data.csv
Wavenumber,Intensities
282.29,2752.0
284.39,2741.0
286.49,2559.0
288.59,2710.0
290.69,2585.0
292.79,2635.0
294.89,2490.0
296.99,2771.0
299.08,2805.0
301.18,2555.0
303.28,2684.0
305.37,2680.0
307.46,2893.0
309.55,2805.0
311.65,2646.0
313.74,2536.0
315.83,2642.0
317.91,2726.0
320.0,2767.0
322.09,2710.0
324.17,2600.0
326.26,2950.0
328.34,2676.0
330.42,2870.0
332.51,2733.0
334.59,2669.0
336.67,2688.0
338.75,2695.0
340.82,2676.0
342.9,2767.0
344.98,2635.0
347.05,2665.0
349.13,2748.0
351.2,2775.0
353.27,2813.0
355.34,2733.0
357.41,2752.0
359.48,2767.0
361.55,3007.0
363.62,2741.0
365.69,2870.0
367.75,2794.0
369.82,2908.0
371.88,2889.0
373.94,3064.0
376.01,2885.0
378.07,2961.0
380.13,2950.0
382.19,2802.0
384.24,2745.0
386.3,2961.0
388.36,3117.0
390.41,2654.0
392.47,3136.0
394.52,2912.0
396.58,3064.0
398.63,3143.0
400.68,2836.0
402.73,2779.0
404.78,2897.0
406.82,2995.0
408.87,2957.0
410.92,2889.0
412.96,3052.0
415.01,2889.0
417.05,2953.0
419.09,2710.0
421.13,2923.0
423.17,2878.0
425.21,2847.0
427.25,2923.0
429.29,2843.0
431.33,2832.0
433.36,2897.0
435.4,3014.0
437.43,2866.0
439.46,2745.0
441.5,2874.0
443.53,2578.0
445.56,2760.0
447.59,2927.0
449.61,2619.0
451.64,2805.0
453.67,2764.0
455.69,2870.0
457.72,2862.0
459.74,2881.0
461.76,2551.0
463.78,2843.0
465.81,2980.0
467.82,2805.0
469.84,2771.0
471.86,2505.0
473.88,2794.0
475.89,2908.0
477.91,2767.0
479.92,2688.0
481.94,2726.0
483.95,2764.0
485.96,2729.0
487.97,2794.0
489.98,2551.0
491.99,2559.0
493.99,2874.0
496.0,2790.0
498.01,2540.0
500.01,2441.0
502.01,2661.0
504.02,2585.0
506.02,2422.0
508.02,2392.0
510.02,2509.0
512.02,2585.0
514.02,2433.0
516.01,2699.0
518.01,2661.0
520.0,2338.0
522.0,2585.0
523.99,2448.0
525.98,2388.0
527.97,2357.0
529.96,2505.0
531.95,2369.0
533.94,2293.0
535.93,2411.0
537.92,2361.0
539.9,2346.0
541.89,2513.0
543.87,2308.0
545.85,2418.0
547.83,2426.0
549.81,2213.0
551.79,2395.0
553.77,2445.0
555.75,2354.0
557.73,2354.0
559.7,2331.0
561.68,2437.0
563.65,2365.0
565.63,2581.0
567.6,2198.0
569.57,2122.0
571.54,2354.0
573.51,2365.0
575.48,2270.0
577.44,2342.0
579.41,2384.0
581.38,2293.0
583.34,2171.0
585.3,2316.0
587.27,2228.0
589.23,2316.0
591.19,2373.0
593.15,2335.0
595.11,2350.0
597.07,2266.0
599.02,2354.0
600.98,2430.0
602.93,2741.0
604.89,2418.0
606.84,2392.0
608.79,2376.0
610.74,2350.0
612.7,2585.0
614.64,2574.0
616.59,2733.0
618.54,3010.0
620.49,3447.0
622.43,3367.0
624.38,3026.0
626.32,2589.0
628.26,2475.0
630.2,2346.0
632.15,2202.0
634.08,2361.0
636.02,2418.0
637.96,2342.0
639.9,2407.0
641.83,2266.0
643.77,2232.0
645.7,2209.0
647.64,2289.0
649.57,2114.0
651.5,2251.0
653.43,2221.0
655.36,2316.0
657.29,2270.0
659.21,2198.0
661.14,2346.0
663.07,2095.0
664.99,2217.0
666.91,2145.0
668.84,2209.0
670.76,1985.0
672.68,2076.0
674.6,2107.0
676.52,2168.0
678.43,2190.0
680.35,2114.0
682.27,2092.0
684.18,1981.0
686.1,2300.0
688.01,2202.0
689.92,2194.0
691.83,2122.0
693.74,2213.0
695.65,2274.0
697.56,2073.0
699.47,2281.0
701.37,2376.0
703.28,2160.0
705.18,2350.0
707.09,2532.0
708.99,2133.0
710.89,2494.0
712.79,2198.0
714.69,2145.0
716.59,2130.0
718.49,2019.0
720.38,2259.0
722.28,2175.0
724.17,2247.0
726.07,2266.0
727.96,2141.0
729.85,2293.0
731.74,2209.0
733.63,2137.0
735.52,2160.0
737.41,2384.0
739.3,2395.0
741.18,2543.0
743.07,2479.0
744.95,2243.0
746.83,2574.0
748.72,2437.0
750.6,2335.0
752.48,2448.0
754.36,2483.0
756.24,2691.0
758.11,2631.0
759.99,2581.0
761.87,2543.0
763.74,2779.0
765.61,2597.0
767.49,2794.0
769.36,2452.0
771.23,2870.0
773.1,2464.0
774.97,2430.0
776.83,2574.0
778.7,2361.0
780.57,2532.0
782.43,2452.0
784.3,2786.0
786.16,2889.0
788.02,2775.0
789.88,3010.0
791.74,2870.0
793.6,3083.0
795.46,3022.0
797.32,3086.0
799.17,3018.0
801.03,2897.0
802.88,2809.0
804.74,2821.0
806.59,2578.0
808.44,2760.0
810.29,2604.0
812.14,2441.0
813.99,2456.0
815.84,2346.0
817.68,2414.0
819.53,2392.0
821.37,2494.0
823.22,2589.0
825.06,2323.0
826.9,2308.0
828.74,2266.0
830.58,2316.0
832.42,2240.0
834.26,2289.0
836.1,2441.0
837.93,2619.0
839.77,2498.0
841.6,2323.0
843.43,2392.0
845.27,2502.0
847.1,2445.0
848.93,2392.0
850.76,2380.0
852.59,2278.0
854.41,2414.0
856.24,2373.0
858.06,2130.0
859.89,2293.0
861.71,2130.0
863.54,2190.0
865.36,2281.0
867.18,2084.0
869.0,2327.0
870.82,2262.0
872.63,2312.0
874.45,2304.0
876.27,2262.0
878.08,2251.0
879.89,2262.0
881.71,2141.0
883.52,2137.0
885.33,2168.0
887.14,2073.0
888.95,2251.0
890.76,2088.0
892.56,2221.0
894.37,2247.0
896.18,2183.0
897.98,2433.0
899.78,2562.0
901.59,2338.0
903.39,2464.0
905.19,2369.0
906.99,2160.0
908.78,2331.0
910.58,2308.0
912.38,2194.0
914.17,2953.0
915.97,2262.0
917.76,2198.0
919.55,2141.0
921.35,2057.0
923.14,2046.0
924.93,2050.0
926.71,2221.0
928.5,2224.0
930.29,2050.0
932.08,2411.0
933.86,2205.0
935.64,2118.0
937.43,2168.0
939.21,1993.0
940.99,2213.0
942.77,2187.0
944.55,1993.0
946.33,2137.0
948.1,2395.0
949.88,2274.0
951.66,2084.0
953.43,2255.0
955.2,2198.0
956.98,2243.0
958.75,2205.0
960.52,2137.0
962.29,2562.0
964.05,2107.0
965.82,2213.0
967.59,2141.0
969.35,2012.0
971.12,2380.0
972.88,2198.0
974.64,2278.0
976.41,2243.0
978.17,2160.0
979.93,2361.0
981.69,2528.0
983.44,2479.0
985.2,2669.0
986.96,2756.0
988.71,2991.0
990.46,3075.0
992.22,3348.0
993.97,3865.0
995.72,4806.0
997.47,6454.0
999.22,8770.0
1000.97,10073.0
1002.71,9978.0
1004.46,8243.0
1006.21,5729.0
1007.95,4503.0
1009.69,3538.0
1011.44,3018.0
1013.18,2680.0
1014.92,2631.0
1016.66,2494.0
1018.39,2517.0
1020.13,2703.0
1021.87,2684.0
1023.6,3132.0
1025.34,3284.0
1027.07,3542.0
1028.8,3960.0
1030.54,4176.0
1032.27,3979.0
1034.0,4168.0
1035.73,3599.0
1037.45,3257.0
1039.18,3219.0
1040.91,2843.0
1042.63,2638.0
1044.35,2726.0
1046.08,2528.0
1047.8,2380.0
1049.52,2445.0
1051.24,2543.0
1052.96,2414.0
1054.68,2441.0
1056.39,2308.0
1058.11,2407.0
1059.83,2532.0
1061.54,2373.0
1063.25,2745.0
1064.97,2407.0
1066.68,2619.0
1068.39,2418.0
1070.1,2414.0
1071.8,2430.0
1073.51,2350.0
1075.22,2354.0
1076.92,2300.0
1078.63,2513.0
1080.33,2642.0
1082.03,2399.0
1083.74,2399.0
1085.44,2335.0
1087.14,2448.0
1088.83,2414.0
1090.53,2418.0
1092.23,2323.0
1093.92,2240.0
1095.62,2266.0
1097.31,2369.0
1099.01,2517.0
1100.7,2270.0
1102.39,2338.0
1104.08,2312.0
1105.77,2426.0
1107.46,2213.0
1109.14,2168.0
1110.83,2259.0
1112.51,2179.0
1114.2,2297.0
1115.88,2281.0
1117.56,2247.0
1119.24,2008.0
1120.92,2145.0
1122.6,2179.0
1124.28,2323.0
1125.96,2088.0
1127.64,2152.0
1129.31,2202.0
1130.99,2114.0
1132.66,2035.0
1134.33,2065.0
1136.0,2076.0
1137.67,2031.0
1139.34,2422.0
1141.01,2688.0
1142.68,2137.0
1144.35,2304.0
1146.01,2243.0
1147.68,2555.0
1149.34,2570.0
1151.0,2703.0
1152.66,2642.0
1154.33,3041.0
1155.99,3185.0
1157.64,2794.0
1159.3,2855.0
1160.96,2650.0
1162.61,2576.0
1164.27,2551.0
1165.92,2494.0
1167.58,2479.0
1169.23,2513.0
1170.88,2312.0
1172.53,2570.0
1174.18,2691.0
1175.83,2680.0
1177.47,2897.0
1179.12,2984.0
1180.77,2965.0
1182.41,3079.0
1184.05,3307.0
1185.7,3234.0
1187.34,2988.0
1188.98,3090.0
1190.62,3151.0
1192.26,3124.0
1193.89,3105.0
1195.53,3033.0
1197.17,3151.0
1198.8,3067.0
1200.43,3280.0
1202.07,3166.0
1203.7,3105.0
1205.33,3102.0
1206.96,2786.0
1208.59,2813.0
1210.22,2684.0
1211.84,2517.0
1213.47,2323.0
1215.09,2426.0
1216.72,2483.0
1218.34,2342.0
1219.96,2346.0
1221.58,2388.0
1223.2,2456.0
1224.82,2403.0
1226.44,2065.0
1228.06,2285.0
1229.67,2259.0
1231.29,2270.0
1232.9,2251.0
1234.52,2380.0
1236.13,2224.0
1237.74,2130.0
1239.35,2042.0
1240.96,2247.0
1242.57,2027.0
1244.18,2194.0
1245.78,2232.0
1247.39,2251.0
1248.99,2065.0
1250.6,2205.0
1252.2,2304.0
1253.8,2224.0
1255.4,2262.0
1257.0,2152.0
1258.6,2392.0
1260.2,2251.0
1261.79,2175.0
1263.39,2084.0
1264.98,2061.0
1266.58,2160.0
1268.17,2168.0
1269.76,2209.0
1271.35,2194.0
1272.94,2243.0
1274.53,2281.0
1276.12,2175.0
1277.71,2031.0
1279.29,2137.0
1280.88,2183.0
1282.46,2168.0
1284.05,2281.0
1285.63,2061.0
1287.21,2183.0
1288.79,2149.0
1290.37,2217.0
1291.95,2281.0
1293.52,2095.0
1295.1,2293.0
1296.68,2156.0
1298.25,2236.0
1299.82,2418.0
1301.4,2190.0
1302.97,2490.0
1304.54,2141.0
1306.11,2354.0
1307.68,2331.0
1309.24,2061.0
1310.81,2547.0
1312.38,2259.0
1313.94,2452.0
1315.51,2133.0
1317.07,2297.0
1318.63,2467.0
1320.19,2547.0
1321.75,2471.0
1323.31,2430.0
1324.87,2437.0
1326.42,2361.0
1327.98,2448.0
1329.53,2380.0
1331.09,2623.0
1332.64,2483.0
1334.19,2433.0
1335.75,2483.0
1337.3,2312.0
1338.84,2411.0
1340.39,2323.0
1341.94,2217.0
1343.49,2289.0
1345.03,2179.0
1346.58,2080.0
1348.12,2217.0
1349.66,1959.0
1351.2,2278.0
1352.74,2118.0
1354.28,2152.0
1355.82,2023.0
1357.36,2209.0
1358.9,2259.0
1360.43,2122.0
1361.97,2308.0
1363.5,2149.0
1365.03,2175.0
1366.56,2331.0
1368.09,2278.0
1369.62,2031.0
1371.15,2179.0
1372.68,2168.0
1374.21,2114.0
1375.73,1951.0
1377.26,2149.0
1378.78,2069.0
1380.3,2228.0
1381.83,2198.0
1383.35,2342.0
1384.87,2171.0
1386.39,2057.0
1387.9,2194.0
1389.42,2092.0
1390.94,2084.0
1392.45,2065.0
1393.97,1974.0
1395.48,1925.0
1396.99,2137.0
1398.5,2149.0
1400.01,1985.0
1401.52,1928.0
1403.03,2262.0
1404.54,1913.0
1406.05,1928.0
1407.55,2031.0
1409.06,2065.0
1410.56,1944.0
1412.06,2027.0
1413.56,2008.0
1415.06,1826.0
1416.56,1928.0
1418.06,2175.0
1419.56,2137.0
1421.06,2092.0
1422.55,2080.0
1424.05,1989.0
1425.54,2042.0
1427.03,2019.0
1428.53,1856.0
1430.02,2266.0
1431.51,2156.0
1433.0,2126.0
1434.48,2073.0
1435.97,2141.0
1437.46,2187.0
1438.94,2187.0
1440.43,2327.0
1441.91,2190.0
1443.39,2213.0
1444.87,2308.0
1446.35,2278.0
1447.83,2403.0
1449.31,2270.0
1450.79,2327.0
1452.26,2585.0
1453.74,2262.0
1455.21,2448.0
1456.69,2111.0
1458.16,2145.0
1459.63,2069.0
1461.1,2118.0
1462.57,2095.0
1464.04,2266.0
1465.51,2171.0
1466.97,1966.0
1468.44,2004.0
1469.9,2179.0
1471.37,1978.0
1472.83,1985.0
1474.29,2095.0
1475.75,2027.0
1477.21,2198.0
1478.67,1932.0
1480.13,2035.0
1481.59,2016.0
1483.04,1978.0
1484.5,2118.0
1485.95,2019.0
1487.4,2012.0
1488.86,2270.0
1490.31,1902.0
1491.76,2050.0
1493.21,2179.0
1494.66,1921.0
1496.1,1883.0
1497.55,1962.0
1498.99,1864.0
1500.44,1750.0
1501.88,1792.0
1503.32,1909.0
1504.77,2054.0
1506.21,1985.0
1507.65,2061.0
1509.08,1944.0
1510.52,1902.0
1511.96,2000.0
1513.39,2054.0
1514.83,2019.0
1516.26,2073.0
1517.69,1993.0
1519.13,1898.0
1520.56,1944.0
1521.99,1925.0
1523.42,2031.0
1524.84,1947.0
1526.27,2149.0
1527.7,1947.0
1529.12,1879.0
1530.54,2118.0
1531.97,2035.0
1533.39,2137.0
1534.81,1902.0
1536.23,1902.0
1537.65,2050.0
1539.07,1978.0
1540.48,1913.0
1541.9,1955.0
1543.32,2168.0
1544.73,2008.0
1546.14,2016.0
1547.56,1985.0
1548.97,2012.0
1550.38,2122.0
1551.79,2118.0
1553.19,2012.0
1554.6,2095.0
1556.01,1970.0
1557.41,2023.0
1558.82,1947.0
1560.22,1970.0
1561.62,1928.0
1563.03,2004.0
1564.43,1962.0
1565.83,1947.0
1567.23,2209.0
1568.62,1833.0
1570.02,2057.0
1571.42,2111.0
1572.81,2088.0
1574.2,2213.0
1575.6,2365.0
1576.99,2346.0
1578.38,2293.0
1579.77,2319.0
1581.16,2650.0
1582.55,2756.0
1583.93,2445.0
1585.32,2570.0
1586.7,2445.0
1588.09,2194.0
1589.47,2608.0
1590.85,2297.0
1592.24,2426.0
1593.62,2407.0
1595.0,2597.0
1596.37,2456.0
1597.75,3246.0
1599.13,2885.0
1600.5,2946.0
1601.88,3329.0
1603.25,3276.0
1604.62,3109.0
1605.99,2775.0
1607.36,2631.0
1608.73,2623.0
1610.1,2517.0
1611.47,2316.0
1612.84,2445.0
1614.2,2395.0
1615.57,2179.0
1616.93,2042.0
1618.29,2369.0
1619.66,2137.0
1621.02,1951.0
1622.38,2035.0
1623.74,2205.0
1625.09,2171.0
1626.45,1925.0
1627.81,2035.0
1629.16,1833.0
1630.52,2061.0
1631.87,1898.0
1633.22,1978.0
1634.57,2046.0
1635.92,1955.0
1637.27,2080.0
1638.62,2224.0
1639.97,2050.0
1641.31,2088.0
1642.66,2065.0
1644.0,1860.0
1645.35,2080.0
1646.69,1841.0
1648.03,2016.0
1649.37,2027.0
1650.71,2069.0
1652.05,2164.0
1653.39,2122.0
1654.72,2099.0
1656.06,1978.0
1657.39,1985.0
1658.73,1913.0
1660.06,2095.0
1661.39,1997.0
1662.72,2183.0
1664.05,1955.0
1665.38,2111.0
1666.71,1985.0
1668.03,1735.0
1669.36,1864.0
1670.69,2168.0
1672.01,1966.0
1673.33,2038.0
1674.65,1978.0
1675.98,1925.0
1677.3,2156.0
1678.62,1856.0
1679.93,1981.0
1681.25,1944.0
1682.57,1947.0
1683.88,2038.0
1685.2,1833.0
1686.51,2038.0
1687.82,1997.0
1689.13,1742.0
1690.44,2152.0
1691.75,1947.0
1693.06,1985.0
1694.37,2008.0
1695.68,1921.0
1696.98,2099.0
1698.29,2255.0
1699.59,1978.0
1700.89,1932.0
1702.19,1951.0
1703.49,2042.0
1704.79,1860.0
1706.09,1970.0
1707.39,1985.0
1708.69,2069.0
1709.98,1780.0
1711.28,1909.0
1712.57,1955.0
1713.86,2103.0
1715.16,1883.0
1716.45,1807.0
1717.74,1837.0
1719.03,2050.0
1720.31,2156.0
1721.6,1940.0
1722.89,2130.0
1724.17,1864.0
1725.46,1822.0
1726.74,1981.0
1728.02,2054.0
1729.3,1898.0
1730.58,2065.0
1731.86,1955.0
1733.14,1913.0
1734.42,1841.0
1735.7,1917.0
1736.97,1962.0
1738.25,1978.0
1739.52,1898.0
1740.79,1947.0
1742.06,1962.0
1743.33,2016.0
1744.6,1894.0
1745.87,1883.0
1747.14,1928.0
1748.41,1955.0
1749.67,1940.0
1750.94,2038.0
1752.2,1887.0
1753.46,1959.0
1754.73,1754.0
1755.99,1849.0
1757.25,1875.0
1758.51,1826.0
1759.76,2035.0
1761.02,1833.0
1762.28,2092.0
1763.53,1985.0
1764.79,2004.0
1766.04,1951.0
1767.29,1833.0
1768.54,1959.0
1769.79,1906.0
1771.04,2126.0
1772.29,1868.0
1773.54,1902.0
1774.79,1951.0
1776.03,2038.0
1777.27,2069.0
1778.52,2016.0
1779.76,1784.0
1781.0,2035.0
1782.24,1845.0
1783.48,1773.0
1784.72,2008.0
1785.96,1962.0
1787.2,1951.0
1788.43,1814.0
1789.67,2126.0
1790.9,1955.0
1792.13,2012.0
1793.36,2133.0
1794.6,2073.0
1795.83,1997.0
1797.05,1852.0
1798.28,1883.0
1799.51,1966.0
1800.74,1985.0
1801.96,1940.0
1803.18,1932.0
1804.41,1871.0
1805.63,2187.0
1806.85,2118.0
1808.07,1985.0
1809.29,2054.0
1810.51,1997.0
1811.73,1928.0
1812.94,1666.0
1814.16,1997.0
1815.37,1841.0
1816.59,1860.0
1817.8,1989.0
1819.01,2023.0
1820.22,1883.0
1821.43,1989.0
1822.64,1997.0
1823.85,1845.0
1825.05,1826.0
1826.26,1962.0
1827.46,1962.0
1828.67,1822.0
1829.87,1890.0
1831.07,1902.0
1832.27,1921.0
1833.47,1890.0
1834.67,1993.0
1835.87,1833.0
1837.06,1940.0
1838.26,2035.0
1839.46,2130.0
1840.65,1993.0
1841.84,1932.0
1843.03,2023.0
1844.23,2149.0
1845.42,1974.0
1846.61,2016.0
1847.79,2031.0
1848.98,1966.0
1850.17,1845.0
1851.35,2057.0
1852.54,1944.0
1853.72,1993.0
1854.9,1951.0
1856.08,2111.0
1857.26,2054.0
1858.44,1852.0
1859.62,1940.0
1860.8,2004.0
1861.98,2202.0
1863.15,1932.0
1864.33,1962.0
1865.5,2035.0
1866.67,1830.0
1867.84,1936.0
1869.01,1845.0
1870.18,2160.0
1871.35,1879.0
1872.52,1887.0
1873.69,1845.0
1874.85,1856.0
1876.02,1947.0
1877.18,1807.0
1878.35,1780.0
1879.51,1887.0
1880.67,1985.0
1881.83,1879.0
1882.99,1955.0
1884.15,1765.0
1885.3,1837.0
1886.46,1856.0
1887.61,1936.0
1888.77,1773.0
1889.92,1663.0
1891.07,1678.0
1892.23,2084.0
1893.38,1776.0