File: mAb_dilution_wasatch_plastic/Equlibration Buffer_data.csv
Wavenumber,Intensities
282.29,8186.67
284.39,8000.33
286.49,7795.67
288.59,7803.33
290.69,7580.67
292.79,7521.0
294.89,7298.33
296.99,7499.0
299.08,7490.67
301.18,7156.67
303.28,7195.0
305.37,7132.33
307.46,7334.0
309.55,7183.33
311.65,7023.67
313.74,6881.33
315.83,7007.33
317.91,7073.33
320.0,7087.0
322.09,7074.33
324.17,6893.0
326.26,7248.0
328.34,6947.67
330.42,7173.0
332.51,6986.0
334.59,6933.67
336.67,6941.33
338.75,6988.33
340.82,6931.67
342.9,7028.67
344.98,6889.67
347.05,6866.67
349.13,6892.0
351.2,7022.67
353.27,7043.0
355.34,6916.0
357.41,6927.67
359.48,6931.33
361.55,7226.33
363.62,6970.67
365.69,7113.67
367.75,7052.67
369.82,7183.0
371.88,7174.33
373.94,7388.33
376.01,7284.33
378.07,7322.0
380.13,7364.33
382.19,7284.33
384.24,7217.33
386.3,7517.33
388.36,7712.33
390.41,7284.33
392.47,7753.0
394.52,7570.33
396.58,7728.67
398.63,7813.67
400.68,7594.33
402.73,7675.0
404.78,7779.0
406.82,7922.67
408.87,7819.67
410.92,7720.0
412.96,7835.0
415.01,7665.33
417.05,7617.0
419.09,7365.67
421.13,7527.33
423.17,7435.0
425.21,7376.67
427.25,7423.67
429.29,7303.33
431.33,7316.33
433.36,7335.0
435.4,7460.67
437.43,7321.33
439.46,7130.33
441.5,7269.0
443.53,6968.0
445.56,7142.33
447.59,7248.0
449.61,6896.0
451.64,7057.67
453.67,7020.33
455.69,7080.67
457.72,6940.0
459.74,7032.67
461.76,6636.0
463.78,6899.67
465.81,7014.67
467.82,6821.33
469.84,6764.33
471.86,6495.33
473.88,6804.67
475.89,6856.33
477.91,6706.33
479.92,6640.0
481.94,6627.33
483.95,6684.67
485.96,6648.0
487.97,6736.67
489.98,6513.67
491.99,6514.67
493.99,6777.0
496.0,6668.0
498.01,6365.67
500.01,6295.0
502.01,6441.67
504.02,6363.0
506.02,6184.33
508.02,6105.0
510.02,6256.67
512.02,6216.33
514.02,6137.67
516.01,6370.67
518.01,6345.67
520.0,5988.33
522.0,6229.33
523.99,6122.67
525.98,6080.0
527.97,6049.0
529.96,6234.33
531.95,6108.67
533.94,6099.33
535.93,6255.67
537.92,6177.0
539.9,6198.67
541.89,6338.33
543.87,6196.0
545.85,6217.67
547.83,6154.0
549.81,5980.67
551.79,6133.0
553.77,6151.67
555.75,6058.0
557.73,6033.0
559.7,5967.0
561.68,6077.33
563.65,5968.33
565.63,6127.0
567.6,5735.33
569.57,5622.0
571.54,5893.33
573.51,5875.67
575.48,5701.0
577.44,5791.0
579.41,5759.33
581.38,5674.67
583.34,5529.0
585.3,5632.67
587.27,5540.33
589.23,5654.33
591.19,5669.33
593.15,5637.67
595.11,5635.33
597.07,5529.0
599.02,5657.0
600.98,5651.67
602.93,6017.67
604.89,5629.0
606.84,5674.67
608.79,5708.67
610.74,5791.33
612.7,6192.33
614.64,6519.0
616.59,7364.33
618.54,8690.33
620.49,9915.67
622.43,9717.0
624.38,8421.0
626.32,7027.67
628.26,6331.33
630.2,5913.67
632.15,5556.33
634.08,5559.67
636.02,5560.67
637.96,5423.0
639.9,5424.0
641.83,5231.67
643.77,5192.33
645.7,5139.0
647.64,5165.67
649.57,5011.67
651.5,5145.33
653.43,5064.33
655.36,5131.67
657.29,5080.0
659.21,5035.33
661.14,5165.67
663.07,4897.33
664.99,5044.33
666.91,4936.67
668.84,4990.0
670.76,4730.33
672.68,4831.67
674.6,4838.0
676.52,4889.67
678.43,4881.33
680.35,4822.33
682.27,4779.67
684.18,4636.67
686.1,5009.0
688.01,4877.0
689.92,4883.33
691.83,4772.0
693.74,4877.33
695.65,5010.0
697.56,4801.33
699.47,5011.33
701.37,5165.67
703.28,4952.0
705.18,5126.67
707.09,5291.0
708.99,4833.0
710.89,5152.0
712.79,4858.0
714.69,4787.33
716.59,4716.67
718.49,4677.33
720.38,4846.67
722.28,4730.33
724.17,4859.33
726.07,4877.33
727.96,4768.33
729.85,4952.0
731.74,4953.0
733.63,5002.67
735.52,5107.33
737.41,5381.0
739.3,5500.0
741.18,5703.33
743.07,5672.67
744.95,5525.33
746.83,5902.33
748.72,5797.33
750.6,5765.67
752.48,5897.33
754.36,6116.33
756.24,6284.33
758.11,6272.0
759.99,6229.0
761.87,6154.33
763.74,6317.67
765.61,6127.67
767.49,6257.0
769.36,5911.33
771.23,6212.67
773.1,5767.0
774.97,5674.67
776.83,5844.33
778.7,5710.33
780.57,5937.67
782.43,5998.33
784.3,6503.67
786.16,6804.67
788.02,6844.0
789.88,7346.33
791.74,7499.67
793.6,7780.67
795.46,7853.67
797.32,7793.33
799.17,7583.0
801.03,7231.33
802.88,6823.67
804.74,6533.67
806.59,6050.67
808.44,6075.0
810.29,5721.0
812.14,5498.67
813.99,5351.67
815.84,5205.0
817.68,5112.67
819.53,4989.33
821.37,5020.0
823.22,5038.0
825.06,4769.67
826.9,4682.33
828.74,4668.33
830.58,4757.0
832.42,4731.67
834.26,4829.0
836.1,4984.67
837.93,5259.33
839.77,5132.67
841.6,5015.0
843.43,5101.33
845.27,5099.0
847.1,5010.33
848.93,4877.0
850.76,4859.33
852.59,4658.67
854.41,4786.33
856.24,4787.33
858.06,4536.67
859.89,4643.0
861.71,4525.33
863.54,4546.67
865.36,4631.67
867.18,4406.33
869.0,4608.33
870.82,4514.0
872.63,4547.0
874.45,4492.67
876.27,4466.0
878.08,4439.0
879.89,4486.0
881.71,4320.67
883.52,4251.0
885.33,4274.67
887.14,4233.0
888.95,4399.0
890.76,4210.33
892.56,4321.67
894.37,4343.0
896.18,4361.0
897.98,4626.67
899.78,4764.67
901.59,4624.0
903.39,4776.0
905.19,4688.67
906.99,4434.33
908.78,4493.33
910.58,4457.0
912.38,4290.33
914.17,4978.0
915.97,4197.67
917.76,4116.67
919.55,4025.67
921.35,3909.0
923.14,3883.67
924.93,3878.33
926.71,3987.67
928.5,3971.0
930.29,3760.33
932.08,4128.0
933.86,3960.67
935.64,3835.67
937.43,3940.33
939.21,3749.67
940.99,3968.67
942.77,3962.33
944.55,3712.67
946.33,3928.0
948.1,4163.67
949.88,4063.33
951.66,3839.67
953.43,4036.67
955.2,4004.0
956.98,4054.67
958.75,4014.0
960.52,3972.0
962.29,4452.67
964.05,4006.33
965.82,4143.0
967.59,4095.0
969.35,3948.0
971.12,4328.0
972.88,4130.67
974.64,4300.33
976.41,4385.0
978.17,4381.33
979.93,4739.33
981.69,5108.67
983.44,5301.33
985.2,5760.67
986.96,6348.0
988.71,7085.67
990.46,7692.33
992.22,8676.67
993.97,10590.33
995.72,14254.33
997.47,20610.33
999.22,28868.33
1000.97,34139.67
1002.71,32938.67
1004.46,26084.0
1006.21,17795.33
1007.95,12296.33
1009.69,8754.67
1011.44,6874.33
1013.18,5802.33
1014.92,5339.0
1016.66,5033.0
1018.39,5060.67
1020.13,5372.0
1021.87,5701.33
1023.6,6682.0
1025.34,7724.0
1027.07,9044.67
1028.8,10497.67
1030.54,11376.0
1032.27,11193.33
1034.0,10792.67
1035.73,9294.0
1037.45,7940.0
1039.18,7144.0
1040.91,6115.0
1042.63,5450.67
1044.35,5313.67
1046.08,4969.67
1047.8,4677.33
1049.52,4655.67
1051.24,4672.67
1052.96,4517.67
1054.68,4534.0
1056.39,4422.67
1058.11,4480.0
1059.83,4664.67
1061.54,4471.67
1063.25,4931.67
1064.97,4615.33
1066.68,4897.33
1068.39,4682.33
1070.1,4719.0
1071.8,4717.67
1073.51,4630.33
1075.22,4619.0
1076.92,4521.67
1078.63,4687.67
1080.33,4724.33
1082.03,4478.33
1083.74,4450.67
1085.44,4411.33
1087.14,4491.0
1088.83,4487.67
1090.53,4433.0
1092.23,4359.67
1093.92,4254.67
1095.62,4319.33
1097.31,4387.33
1099.01,4500.0
1100.7,4236.33
1102.39,4221.67
1104.08,4171.0
1105.77,4154.33
1107.46,3898.33
1109.14,3820.33
1110.83,3846.0
1112.51,3721.33
1114.2,3833.0
1115.88,3767.33
1117.56,3659.67
1119.24,3415.33
1120.92,3495.0
1122.6,3510.67
1124.28,3613.0
1125.96,3380.0
1127.64,3437.0
1129.31,3507.67
1130.99,3404.33
1132.66,3330.67
1134.33,3419.33
1136.0,3419.0
1137.67,3381.67
1139.34,3849.67
1141.01,4181.0
1142.68,3715.33
1144.35,4044.33
1146.01,4129.33
1147.68,4645.67
1149.34,4993.67
1151.0,5504.67
1152.66,5967.0
1154.33,6660.67
1155.99,6818.67
1157.64,6269.67
1159.3,5943.0
1160.96,5397.67
1162.61,5009.33
1164.27,4881.0
1165.92,4742.67
1167.58,4673.33
1169.23,4711.33
1170.88,4583.67
1172.53,4975.67
1174.18,5324.0
1175.83,5703.67
1177.47,6349.33
1179.12,7005.0
1180.77,7361.67
1182.41,7532.33
1184.05,7671.67
1185.7,7346.33
1187.34,6960.0
1188.98,6960.67
1190.62,7026.33
1192.26,7089.67
1193.89,7082.0
1195.53,7073.0
1197.17,7268.67
1198.8,7215.0
1200.43,7397.0
1202.07,7144.0
1203.7,6976.67
1205.33,6734.0
1206.96,6203.67
1208.59,5958.0
1210.22,5523.0
1211.84,5109.0
1213.47,4735.67
1215.09,4690.0
1216.72,4575.33
1218.34,4367.33
1219.96,4277.33
1221.58,4249.33
1223.2,4315.33
1224.82,4181.0
1226.44,3800.33
1228.06,3941.67
1229.67,3844.33
1231.29,3816.67
1232.9,3757.0
1234.52,3866.0
1236.13,3681.0
1237.74,3593.67
1239.35,3466.0
1240.96,3695.0
1242.57,3435.0
1244.18,3583.67
1245.78,3630.67
1247.39,3664.67
1248.99,3463.0
1250.6,3576.0
1252.2,3645.67
1253.8,3551.0
1255.4,3581.0
1257.0,3460.0
1258.6,3719.0
1260.2,3570.67
1261.79,3457.33
1263.39,3399.33
1264.98,3350.33
1266.58,3423.0
1268.17,3487.0
1269.76,3566.0
1271.35,3491.33
1272.94,3519.33
1274.53,3580.0
1276.12,3497.67
1277.71,3310.33
1279.29,3427.0
1280.88,3501.33
1282.46,3446.67
1284.05,3586.33
1285.63,3395.33
1287.21,3491.67
1288.79,3496.33
1290.37,3591.33
1291.95,3682.33
1293.52,3478.33
1295.1,3681.0
1296.68,3583.67
1298.25,3693.67
1299.82,3882.33
1301.4,3669.67
1302.97,4006.33
1304.54,3653.67
1306.11,3850.33
1307.68,3849.33
1309.24,3598.0
1310.81,4088.67
1312.38,3816.0
1313.94,4063.33
1315.51,3766.33
1317.07,3962.33
1318.63,4190.0
1320.19,4253.0
1321.75,4260.33
1323.31,4295.33
1324.87,4321.0
1326.42,4197.67
1327.98,4299.67
1329.53,4200.0
1331.09,4421.33
1332.64,4269.67
1334.19,4146.67
1335.75,4125.67
1337.3,3890.0
1338.84,3921.67
1340.39,3761.0
1341.94,3664.67
1343.49,3652.0
1345.03,3534.33
1346.58,3386.67
1348.12,3480.0
1349.66,3218.0
1351.2,3529.33
1352.74,3342.33
1354.28,3389.0
1355.82,3251.0
1357.36,3398.67
1358.9,3470.0
1360.43,3337.0
1361.97,3526.67
1363.5,3349.67
1365.03,3347.0
1366.56,3521.67
1368.09,3506.33
1369.62,3218.0
1371.15,3368.0
1372.68,3316.67
1374.21,3255.0
1375.73,3062.33
1377.26,3217.33
1378.78,3091.67
1380.3,3234.33
1381.83,3139.67
1383.35,3272.33
1384.87,3094.0
1386.39,2931.67
1387.9,3044.67
1389.42,2937.0
1390.94,2894.0
1392.45,2920.67
1393.97,2797.33
1395.48,2772.0
1396.99,2937.0
1398.5,2954.67
1400.01,2818.0
1401.52,2740.67
1403.03,3058.67
1404.54,2721.67
1406.05,2732.0
1407.55,2849.67
1409.06,2862.33
1410.56,2729.33
1412.06,2822.0
1413.56,2780.33
1415.06,2600.33
1416.56,2719.33
1418.06,2917.0
1419.56,2915.67
1421.06,2843.33
1422.55,2834.67
1424.05,2747.33
1425.54,2767.67
1427.03,2828.33
1428.53,2675.0
1430.02,3090.33
1431.51,3019.33
1433.0,3001.67
1434.48,3046.0
1435.97,3153.67
1437.46,3237.0
1438.94,3308.0
1440.43,3536.0
1441.91,3486.33
1443.39,3582.0
1444.87,3753.33
1446.35,3832.0
1447.83,4010.33
1449.31,3914.67
1450.79,3980.0
1452.26,4224.33
1453.74,3801.67
1455.21,3829.33
1456.69,3346.0
1458.16,3251.0
1459.63,3018.0
1461.1,3018.67
1462.57,2947.0
1464.04,3056.0
1465.51,2942.0
1466.97,2730.67
1468.44,2754.67
1469.9,2880.33
1471.37,2707.67
1472.83,2722.33
1474.29,2796.67
1475.75,2715.67
1477.21,2890.0
1478.67,2686.67
1480.13,2733.33
1481.59,2737.0
1483.04,2681.67
1484.5,2842.33
1485.95,2743.33
1487.4,2723.0
1488.86,2996.67
1490.31,2623.0
1491.76,2791.67
1493.21,2944.67
1494.66,2700.0
1496.1,2636.0
1497.55,2691.33
1498.99,2553.0
1500.44,2463.67
1501.88,2447.33
1503.32,2585.33
1504.77,2773.67
1506.21,2711.67
1507.65,2724.33
1509.08,2605.33
1510.52,2562.67
1511.96,2689.0
1513.39,2722.0
1514.83,2704.0
1516.26,2767.33
1517.69,2695.33
1519.13,2570.0
1520.56,2638.67
1521.99,2609.0
1523.42,2709.0
1524.84,2663.33
1526.27,2849.67
1527.7,2601.67
1529.12,2574.0
1530.54,2775.0
1531.97,2729.33
1533.39,2801.67
1534.81,2592.67
1536.23,2557.33
1537.65,2748.0
1539.07,2667.67
1540.48,2605.33
1541.9,2667.67
1543.32,2894.33
1544.73,2705.33
1546.14,2721.67
1547.56,2684.0
1548.97,2752.0
1550.38,2848.33
1551.79,2855.0
1553.19,2729.33
1554.6,2815.33
1556.01,2712.0
1557.41,2788.67
1558.82,2732.0
1560.22,2761.33
1561.62,2699.67
1563.03,2789.0
1564.43,2756.0
1565.83,2752.33
1567.23,3056.0
1568.62,2691.33
1570.02,2938.33
1571.42,3048.33
1572.81,3058.0
1574.2,3181.33
1575.6,3455.67
1576.99,3543.33
1578.38,3624.33
1579.77,3830.33
1581.16,4368.67
1582.55,4700.0
1583.93,4392.33
1585.32,4433.0
1586.7,4179.67
1588.09,3799.0
1589.47,4050.67
1590.85,3765.67
1592.24,3925.33
1593.62,4031.67
1595.0,4335.33
1596.37,4462.0
1597.75,5568.33
1599.13,5632.67
1600.5,6062.0
1601.88,6613.67
1603.25,6596.0
1604.62,6290.0
1605.99,5628.67
1607.36,5127.0
1608.73,4790.0
1610.1,4333.33
1611.47,3934.33
1612.84,3946.0
1614.2,3781.33
1615.57,3452.0
1616.93,3299.0
1618.29,3585.0
1619.66,3321.67
1621.02,3104.0
1622.38,3226.67
1623.74,3368.67
1625.09,3354.67
1626.45,3081.33
1627.81,3187.33
1629.16,3001.67
1630.52,3156.67
1631.87,3029.67
1633.22,3122.0
1634.57,3161.33
1635.92,3052.67
1637.27,3186.33
1638.62,3330.0
1639.97,3134.33
1641.31,3190.0
1642.66,3123.0
1644.0,2915.0
1645.35,3113.0
1646.69,2882.67
1648.03,3052.33
1649.37,3096.67
1650.71,3106.67
1652.05,3182.33
1653.39,3133.33
1654.72,3125.67
1656.06,2986.33
1657.39,2995.33
1658.73,2884.0
1660.06,3089.0
1661.39,2915.67
1662.72,3129.33
1664.05,2898.0
1665.38,3044.67
1666.71,2906.67
1668.03,2629.33
1669.36,2740.67
1670.69,3015.33
1672.01,2843.67
1673.33,2858.67
1674.65,2818.0
1675.98,2748.33
1677.3,2929.67
1678.62,2665.0
1679.93,2776.33
1681.25,2764.67
1682.57,2727.0
1683.88,2813.0
1685.2,2581.33
1686.51,2761.0
1687.82,2706.67
1689.13,2390.33
1690.44,2851.67
1691.75,2590.0
1693.06,2638.67
1694.37,2645.0
1695.68,2523.33
1696.98,2683.0
1698.29,2870.0
1699.59,2573.33
1700.89,2486.33
1702.19,2514.33
1703.49,2567.67
1704.79,2390.33
1706.09,2484.0
1707.39,2491.67
1708.69,2561.0
1709.98,2232.33
1711.28,2399.0
1712.57,2409.33
1713.86,2550.67
1715.16,2347.33
1716.45,2234.33
1717.74,2275.0
1719.03,2453.67
1720.31,2578.67
1721.6,2357.33
1722.89,2513.0
1724.17,2268.67
1725.46,2219.33
1726.74,2357.33
1728.02,2414.33
1729.3,2256.0
1730.58,2431.0
1731.86,2303.0
1733.14,2248.33
1734.42,2155.0
1735.7,2252.0
1736.97,2277.67
1738.25,2327.0
1739.52,2211.67
1740.79,2291.0
1742.06,2268.67
1743.33,2288.0
1744.6,2190.0
1745.87,2204.33
1747.14,2243.33
1748.41,2249.0
1749.67,2251.0
1750.94,2346.0
1752.2,2214.33
1753.46,2260.0
1754.73,2036.0
1755.99,2082.67
1757.25,2157.33
1758.51,2098.0
1759.76,2318.33
1761.02,2087.67
1762.28,2342.0
1763.53,2221.67
1764.79,2274.0
1766.04,2201.67
1767.29,2085.33
1768.54,2205.67
1769.79,2135.67
1771.04,2342.0
1772.29,2067.67
1773.54,2142.0
1774.79,2160.0
1776.03,2283.67
1777.27,2284.0
1778.52,2243.33
1779.76,2009.0
1781.0,2243.33
1782.24,2051.0
1783.48,2013.0
1784.72,2239.33
1785.96,2176.67
1787.2,2158.67
1788.43,2018.33
1789.67,2328.33
1790.9,2155.33
1792.13,2179.0
1793.36,2332.67
1794.6,2267.33
1795.83,2214.33
1797.05,2085.33
1798.28,2078.0
1799.51,2120.33
1800.74,2184.33
1801.96,2116.33
1803.18,2145.0
1804.41,2088.67
1805.63,2395.33
1806.85,2292.67
1808.07,2192.67
1809.29,2234.33
1810.51,2143.67
1811.73,2111.67
1812.94,1840.33
1814.16,2147.0
1815.37,2005.33
1816.59,2068.67
1817.8,2158.67
1819.01,2189.0
1820.22,2057.67
1821.43,2178.67
1822.64,2163.67
1823.85,2053.67
1825.05,1986.33
1826.26,2129.67
1827.46,2137.33
1828.67,2018.33
1829.87,2039.67
1831.07,2070.0
1832.27,2057.33
1833.47,2034.33
1834.67,2147.33
1835.87,2011.67
1837.06,2065.0
1838.26,2181.67
1839.46,2274.0
1840.65,2136.0
1841.84,2089.0
1843.03,2166.33
1844.23,2330.0
1845.42,2105.67
1846.61,2146.0
1847.79,2147.67
1848.98,2095.67
1850.17,1992.67
1851.35,2194.33
1852.54,2079.0
1853.72,2117.67
1854.9,2093.0
1856.08,2263.67
1857.26,2172.67
1858.44,1993.33
1859.62,2080.0
1860.8,2134.67
1861.98,2337.0
1863.15,2076.33
1864.33,2108.0
1865.5,2161.33
1866.67,1955.0
1867.84,2079.0
1869.01,1962.0
1870.18,2361.33
1871.35,2025.67
1872.52,2003.0
1873.69,1976.33
1874.85,1992.67
1876.02,2094.33
1877.18,1957.33
1878.35,1919.33
1879.51,2006.67
1880.67,2112.0
1881.83,2006.67
1882.99,2099.33
1884.15,1918.33
1885.3,1963.67
1886.46,1987.33
1887.61,2088.0
1888.77,1892.67
1889.92,1803.0
1891.07,1838.33
1892.23,2266.0
1893.38,1914.33