File: mAb_degraded_wasatch_plastic/0% Raw + 100% Graded Sample, 200mW, 2000ms_data.csv
Wavenumber,Intensities
282.29,806.33
284.39,812.67
286.49,824.33
288.59,678.0
290.7,755.33
292.79,708.0
294.89,763.33
296.99,561.0
299.09,506.33
301.18,644.0
303.28,562.33
305.37,531.0
307.47,423.33
309.56,506.67
311.65,571.0
313.74,628.0
315.83,586.33
317.92,543.67
320.0,523.0
322.09,571.67
324.18,649.0
326.26,470.33
328.34,606.67
330.43,502.33
332.51,586.0
334.59,635.67
336.67,593.67
338.75,584.0
340.83,597.67
342.9,538.33
344.98,580.0
347.05,564.67
349.13,520.33
351.2,474.0
353.27,477.33
355.35,510.67
357.42,473.0
359.49,448.0
361.55,373.67
363.62,502.33
365.69,435.67
367.75,482.0
369.82,445.33
371.88,488.67
373.95,467.33
376.01,565.33
378.07,555.33
380.13,609.33
382.19,712.67
384.25,765.33
386.31,698.33
388.36,645.0
390.42,894.0
392.47,690.0
394.53,814.0
396.58,780.67
398.63,791.0
400.68,1011.67
402.73,1065.0
404.78,1080.0
406.83,1070.67
408.87,1029.33
410.92,1017.67
412.97,865.0
415.01,900.67
417.05,787.67
419.1,866.67
421.14,709.67
423.18,708.0
425.22,703.0
427.25,647.67
429.29,647.0
431.33,637.67
433.36,546.0
435.4,504.67
437.43,581.33
439.47,640.0
441.5,536.67
443.53,664.0
445.56,542.33
447.59,404.67
449.62,568.33
451.64,469.0
453.67,458.67
455.7,364.33
457.72,347.33
459.74,300.0
461.77,499.0
463.79,317.67
465.81,233.0
467.83,284.33
469.85,289.33
471.86,416.0
473.88,269.33
475.9,229.33
477.91,270.0
479.93,313.67
481.94,329.67
483.95,297.67
485.96,329.0
487.97,264.33
489.98,362.0
491.99,336.33
494.0,177.0
496.0,178.0
498.01,321.0
500.01,342.67
502.02,198.67
504.02,269.67
506.02,301.67
508.02,336.0
510.02,199.67
512.02,208.33
514.02,306.67
516.01,105.33
518.01,182.0
520.01,324.33
522.0,119.67
523.99,278.67
525.99,288.67
527.98,321.67
529.97,303.67
531.96,400.33
533.94,491.33
535.93,472.33
537.92,515.67
539.9,528.0
541.89,464.67
543.87,527.67
545.85,517.33
547.84,477.67
549.82,534.0
551.8,431.33
553.78,399.67
555.75,453.33
557.73,423.67
559.71,391.67
561.68,346.67
563.66,401.67
565.63,251.0
567.6,464.67
569.57,471.0
571.54,339.33
573.51,337.67
575.48,359.67
577.45,278.67
579.41,258.0
581.38,285.33
583.34,357.0
585.31,249.33
587.27,303.33
589.23,236.0
591.19,222.33
593.15,226.0
595.11,236.0
597.07,268.0
599.03,204.67
600.98,226.0
602.94,53.0
604.89,231.67
606.84,238.33
608.8,309.67
610.75,463.0
612.7,559.0
614.65,965.33
616.6,1620.33
618.54,2504.0
620.49,3054.33
622.43,2983.0
624.38,2252.0
626.32,1522.33
628.27,925.33
630.21,614.0
632.15,522.67
634.09,351.67
636.03,229.33
637.96,189.33
639.9,68.67
641.84,137.67
643.77,76.33
645.71,119.33
647.64,49.0
649.57,130.33
651.5,28.0
653.43,66.33
655.36,9.67
657.29,-15.0
659.22,39.0
661.14,-41.0
663.07,96.33
664.99,-10.0
666.92,39.33
668.84,27.33
670.76,145.33
672.68,70.67
674.6,53.0
676.52,29.67
678.44,29.33
680.35,67.0
682.27,94.67
684.19,150.67
686.1,-52.0
688.01,29.67
689.92,-6.67
691.83,59.33
693.74,76.0
695.65,17.33
697.56,165.33
699.47,77.0
701.38,76.0
703.28,166.0
705.19,47.67
707.09,-90.67
708.99,92.67
710.89,-100.33
712.79,31.67
714.69,36.33
716.59,87.0
718.49,107.0
720.39,34.67
722.28,77.33
724.18,6.67
726.07,34.0
727.96,152.67
729.85,121.0
731.74,243.33
733.63,362.67
735.52,497.33
737.41,459.67
739.3,560.0
741.18,496.33
743.07,623.67
744.95,767.67
746.84,656.67
748.72,831.67
750.6,963.33
752.48,975.0
754.36,1025.0
756.24,994.0
758.12,1058.67
759.99,1100.33
761.87,1058.33
763.74,908.33
765.62,977.67
767.49,858.0
769.36,964.33
771.23,699.0
773.1,860.67
774.97,889.67
776.84,794.33
778.7,927.67
780.57,942.0
782.44,1112.67
784.3,1104.0
786.16,1351.33
788.02,1650.0
789.89,1752.0
791.75,2073.0
793.6,2148.33
795.46,2255.67
797.32,2216.33
799.18,1981.0
801.03,1779.67
802.89,1485.67
804.74,1184.67
806.59,1092.0
808.44,859.0
810.29,780.0
812.14,706.0
813.99,581.33
815.84,564.67
817.69,398.0
819.53,337.0
821.38,180.0
823.22,116.33
825.06,228.67
826.9,259.33
828.75,274.0
830.59,264.67
832.42,372.33
834.26,371.67
836.1,416.33
837.93,359.33
839.77,477.33
841.6,561.67
843.44,525.67
845.27,475.0
847.1,393.33
848.93,352.0
850.76,315.33
852.59,352.33
854.42,266.33
856.24,271.67
858.07,349.0
859.89,318.0
861.72,355.33
863.54,306.67
865.36,266.67
867.18,375.67
869.0,205.33
870.82,242.0
872.64,245.67
874.45,222.0
876.27,251.33
878.08,239.33
879.9,189.67
881.71,265.67
883.52,301.0
885.33,252.33
887.14,323.33
888.95,210.0
890.76,338.33
892.57,274.33
894.37,277.67
896.18,336.0
897.98,302.33
899.79,289.67
901.59,434.0
903.39,388.67
905.19,455.33
906.99,549.33
908.79,450.67
910.58,363.67
912.38,325.0
914.18,-147.67
915.97,155.33
917.76,217.0
919.56,177.67
921.35,221.33
923.14,183.33
924.93,164.67
926.72,87.67
928.51,43.0
930.29,135.0
932.08,-37.67
933.86,83.33
935.65,147.67
937.43,138.33
939.21,218.67
940.99,138.67
942.77,140.0
944.55,272.0
946.33,155.67
948.11,62.0
949.88,79.0
951.66,237.67
953.43,104.67
955.21,132.33
956.98,164.33
958.75,208.67
960.52,312.0
962.29,92.67
964.06,370.67
965.82,310.0
967.59,340.0
969.36,452.67
971.12,242.67
972.88,387.33
974.65,402.67
976.41,494.67
978.17,656.67
979.93,707.0
981.69,749.67
983.45,1019.67
985.2,1282.0
986.96,1675.33
988.71,2075.67
990.47,2569.0
992.22,3275.67
993.97,4575.67
995.72,6995.33
997.47,11179.0
999.22,16410.0
1000.97,19848.0
1002.72,18565.0
1004.46,13957.67
1006.21,9217.67
1007.95,5439.33
1009.7,3292.33
1011.44,2039.0
1013.18,1425.67
1014.92,1068.67
1016.66,969.67
1018.4,960.33
1020.13,1058.33
1021.87,1430.67
1023.61,1811.33
1025.34,2599.0
1027.07,3667.0
1028.81,4534.67
1030.54,5040.0
1032.27,5195.33
1034.0,4465.33
1035.73,3699.0
1037.46,2877.33
1039.18,2039.0
1040.91,1636.0
1042.63,1332.0
1044.36,967.0
1046.08,889.67
1047.8,814.67
1049.52,668.0
1051.24,606.67
1052.96,618.33
1054.68,552.0
1056.4,651.0
1058.11,590.67
1059.83,535.67
1061.54,665.67
1063.26,486.33
1064.97,704.0
1066.68,640.67
1068.39,802.67
1070.1,849.0
1071.81,790.67
1073.51,834.67
1075.22,791.33
1076.93,780.33
1078.63,637.33
1080.33,591.0
1082.04,606.0
1083.74,624.33
1085.44,626.67
1087.14,596.33
1088.84,556.0
1090.53,591.33
1092.23,643.33
1093.93,709.67
1095.62,653.33
1097.32,628.0
1099.01,521.67
1100.7,592.67
1102.39,531.0
1104.08,402.33
1105.77,281.0
1107.46,331.67
1109.15,275.67
1110.83,212.33
1112.52,172.0
1114.2,86.0
1115.88,55.67
1117.57,72.0
1119.25,148.0
1120.93,21.33
1122.61,-42.33
1124.28,-100.67
1125.96,12.33
1127.64,-64.67
1129.31,-104.0
1130.99,-18.33
1132.66,35.67
1134.33,32.67
1136.01,58.0
1137.68,156.0
1139.35,14.0
1141.01,-95.33
1142.68,311.33
1144.35,348.0
1146.01,507.33
1147.68,613.33
1149.34,949.33
1151.01,1436.33
1152.67,1934.0
1154.33,2066.33
1155.99,2035.0
1157.65,1983.67
1159.3,1556.33
1160.96,1297.33
1162.62,1044.0
1164.27,852.33
1165.93,780.33
1167.58,771.0
1169.23,799.0
1170.88,995.0
1172.53,985.67
1174.18,1193.33
1175.83,1589.33
1177.48,2027.33
1179.12,2506.0
1180.77,2903.33
1182.41,3027.0
1184.06,2707.67
1185.7,2521.0
1187.34,2450.0
1188.98,2304.33
1190.62,2248.33
1192.26,2323.33
1193.9,2482.33
1195.53,2590.0
1197.17,2589.33
1198.8,2660.33
1200.44,2502.0
1202.07,2474.0
1203.7,2315.33
1205.33,2071.67
1206.96,1939.67
1208.59,1608.0
1210.22,1427.67
1211.85,1228.0
1213.47,1104.0
1215.1,886.33
1216.72,741.33
1218.34,692.0
1219.96,624.33
1221.59,557.33
1223.21,453.0
1224.83,468.33
1226.44,562.0
1228.06,411.67
1229.68,402.67
1231.29,298.33
1232.91,294.0
1234.52,164.33
1236.13,230.0
1237.74,233.0
1239.35,266.67
1240.96,127.0
1242.57,284.33
1244.18,155.33
1245.78,125.33
1247.39,139.33
1248.99,226.33
1250.6,136.33
1252.2,73.67
1253.8,108.67
1255.4,114.67
1257.0,108.67
1258.6,8.67
1260.2,74.67
1261.8,98.33
1263.39,138.67
1264.99,149.67
1266.58,119.33
1268.17,69.67
1269.77,40.67
1271.36,78.67
1272.95,58.0
1274.54,12.33
1276.12,90.33
1277.71,174.33
1279.3,132.67
1280.88,96.33
1282.47,102.0
1284.05,52.0
1285.63,163.67
1287.21,156.0
1288.79,158.67
1290.37,164.67
1291.95,119.0
1293.53,289.33
1295.1,202.33
1296.68,294.33
1298.25,270.67
1299.83,244.33
1301.4,362.0
1302.97,213.0
1304.54,418.0
1306.11,300.0
1307.68,363.0
1309.25,493.67
1310.81,273.0
1312.38,455.0
1313.94,399.0
1315.51,609.0
1317.07,558.67
1318.63,507.0
1320.19,572.33
1321.75,579.67
1323.31,646.67
1324.87,657.0
1326.43,738.67
1327.98,674.0
1329.54,707.67
1331.09,558.0
1332.64,592.67
1334.2,565.33
1335.75,476.0
1337.3,488.0
1338.85,368.0
1340.4,373.0
1341.94,315.0
1343.49,212.33
1345.03,251.33
1346.58,280.0
1348.12,183.33
1349.66,303.0
1351.21,108.67
1352.75,179.33
1354.29,145.67
1355.82,187.0
1357.36,165.33
1358.9,74.33
1360.43,141.67
1361.97,23.67
1363.5,125.67
1365.03,118.67
1366.57,54.33
1368.1,54.67
1369.63,186.0
1371.16,95.33
1372.68,77.0
1374.21,106.67
1375.74,131.33
1377.26,2.67
1378.78,4.0
1380.31,-144.0
1381.83,-112.33
1383.35,-222.33
1384.87,-176.33
1386.39,-154.0
1387.91,-253.67
1389.42,-180.67
1390.94,-185.67
1392.46,-213.33
1393.97,-157.33
1395.48,-133.67
1397.0,-259.0
1398.51,-242.67
1400.02,-175.0
1401.53,-154.67
1403.04,-340.33
1404.54,-164.33
1406.05,-150.67
1407.55,-206.33
1409.06,-259.33
1410.56,-154.67
1412.06,-242.33
1413.57,-202.0
1415.07,-135.33
1416.57,-167.33
1418.07,-307.67
1419.56,-295.67
1421.06,-233.67
1422.56,-240.67
1424.05,-205.33
1425.54,-212.0
1427.04,-221.67
1428.53,-80.33
1430.02,-275.67
1431.51,-175.67
1433.0,-105.0
1434.49,-18.0
1435.97,21.0
1437.46,90.67
1438.94,186.0
1440.43,204.33
1441.91,337.0
1443.39,435.67
1444.88,495.0
1446.36,582.0
1447.83,658.67
1449.31,691.33
1450.79,702.33
1452.27,510.33
1453.74,598.67
1455.22,364.67
1456.69,356.33
1458.16,151.67
1459.63,64.33
1461.1,-51.33
1462.57,-158.0
1464.04,-267.33
1465.51,-232.33
1466.98,-153.67
1468.44,-207.33
1469.91,-267.67
1471.37,-215.0
1472.83,-239.67
1474.3,-305.0
1475.76,-269.33
1477.22,-382.67
1478.67,-229.33
1480.13,-245.33
1481.59,-314.0
1483.05,-259.0
1484.5,-317.33
1485.95,-302.33
1487.41,-258.33
1488.86,-395.67
1490.31,-161.0
1491.76,-208.33
1493.21,-235.33
1494.66,-126.0
1496.11,-138.0
1497.55,-236.67
1499.0,-133.0
1500.44,-108.33
1501.88,-141.33
1503.33,-241.33
1504.77,-324.67
1506.21,-291.67
1507.65,-301.33
1509.09,-274.33
1510.52,-230.33
1511.96,-275.0
1513.4,-303.67
1514.83,-292.67
1516.26,-372.67
1517.7,-272.0
1519.13,-223.0
1520.56,-283.0
1521.99,-285.0
1523.42,-292.33
1524.85,-270.0
1526.27,-390.33
1527.7,-286.33
1529.12,-257.67
1530.55,-334.67
1531.97,-312.0
1533.39,-359.67
1534.81,-231.0
1536.23,-220.67
1537.65,-308.67
1539.07,-278.67
1540.49,-225.33
1541.9,-259.67
1543.32,-381.0
1544.73,-303.0
1546.15,-287.67
1547.56,-261.33
1548.97,-268.67
1550.38,-322.33
1551.79,-284.67
1553.2,-219.0
1554.61,-249.0
1556.01,-175.67
1557.42,-215.0
1558.82,-205.0
1560.22,-248.33
1561.63,-170.33
1563.03,-217.0
1564.43,-168.0
1565.83,-156.33
1567.23,-303.67
1568.63,-53.67
1570.02,-154.0
1571.42,-146.0
1572.81,-57.0
1574.21,-52.0
1575.6,-67.67
1576.99,97.0
1578.38,318.0
1579.77,565.67
1581.16,701.0
1582.55,873.67
1583.94,1137.33
1585.32,932.33
1586.71,764.33
1588.09,627.33
1589.47,299.0
1590.86,416.67
1592.24,420.33
1593.62,564.33
1595.0,726.33
1596.38,1128.33
1597.75,1155.67
1599.13,1813.33
1600.51,2266.0
1601.88,2398.33
1603.25,2466.33
1604.63,2291.33
1606.0,2008.67
1607.37,1581.33
1608.74,1057.0
1610.11,717.67
1611.47,503.0
1612.84,172.0
1614.21,55.0
1615.57,123.0
1616.93,89.0
1618.3,-192.67
1619.66,-77.0
1621.02,-11.0
1622.38,-100.0
1623.74,-238.67
1625.1,-253.33
1626.45,-93.0
1627.81,-174.0
1629.16,-96.33
1630.52,-210.33
1631.87,-157.33
1633.22,-203.33
1634.57,-270.33
1635.92,-247.67
1637.27,-287.33
1638.62,-370.33
1639.97,-285.0
1641.32,-313.67
1642.66,-251.0
1644.01,-183.67
1645.35,-295.33
1646.69,-213.0
1648.03,-254.0
1649.37,-313.67
1650.71,-312.67
1652.05,-351.0
1653.39,-359.33
1654.73,-321.0
1656.06,-281.33
1657.4,-295.0
1658.73,-249.67
1660.06,-384.67
1661.39,-281.33
1662.72,-387.0
1664.05,-286.33
1665.38,-387.33
1666.71,-309.0
1668.04,-187.67
1669.36,-215.0
1670.69,-421.0
1672.01,-308.0
1673.34,-353.0
1674.66,-275.67
1675.98,-272.67
1677.3,-421.67
1678.62,-263.0
1679.94,-326.33
1681.25,-322.33
1682.57,-323.67
1683.88,-365.33
1685.2,-282.67
1686.51,-361.33
1687.82,-341.33
1689.14,-220.33
1690.45,-457.33
1691.76,-313.67
1693.06,-369.67
1694.37,-347.67
1695.68,-323.0
1696.98,-398.67
1698.29,-550.67
1699.59,-375.67
1700.89,-340.33
1702.2,-357.67
1703.5,-419.33
1704.8,-323.0
1706.1,-384.33
1707.39,-389.67
1708.69,-453.0
1709.99,-251.67
1711.28,-370.33
1712.57,-378.33
1713.87,-469.67
1715.16,-379.67
1716.45,-315.33
1717.74,-338.67
1719.03,-433.33
1720.32,-511.0
1721.6,-360.33
1722.89,-487.67
1724.18,-367.0
1725.46,-328.0
1726.74,-418.0
1728.03,-446.67
1729.31,-361.0
1730.59,-445.67
1731.87,-398.33
1733.15,-377.0
1734.42,-292.0
1735.7,-383.0
1736.97,-440.67
1738.25,-420.67
1739.52,-367.33
1740.79,-388.67
1742.07,-429.33
1743.34,-423.0
1744.61,-344.67
1745.88,-350.67
1747.14,-388.0
1748.41,-419.0
1749.68,-426.0
1750.94,-490.33
1752.2,-386.0
1753.47,-434.67
1754.73,-309.67
1755.99,-343.0
1757.25,-379.0
1758.51,-355.33
1759.77,-493.33
1761.02,-350.0
1762.28,-502.33
1763.54,-429.0
1764.79,-452.0
1766.04,-402.33
1767.29,-366.33
1768.55,-440.67
1769.8,-399.0
1771.05,-493.0
1772.29,-365.33
1773.54,-406.0
1774.79,-429.33
1776.03,-484.67
1777.28,-524.0
1778.52,-475.0
1779.76,-356.33
1781.01,-471.67
1782.25,-356.0
1783.49,-354.0
1784.72,-497.33
1785.96,-435.67
1787.2,-443.67
1788.43,-346.67
1789.67,-537.0
1790.9,-460.67
1792.14,-447.33
1793.37,-539.33
1794.6,-498.33
1795.83,-469.33
1797.06,-395.67
1798.28,-387.33
1799.51,-434.0
1800.74,-467.0
1801.96,-438.0
1803.19,-425.0
1804.41,-413.67
1805.63,-563.33
1806.85,-518.33
1808.07,-448.0
1809.29,-480.67
1810.51,-455.33
1811.73,-437.0
1812.94,-296.0
1814.16,-461.67
1815.37,-355.33
1816.59,-395.0
1817.8,-480.67
1819.01,-472.0
1820.22,-396.0
1821.43,-473.33
1822.64,-458.67
1823.85,-426.33
1825.05,-354.0
1826.26,-445.33
1827.46,-435.0
1828.67,-380.33
1829.87,-420.0
1831.07,-424.33
1832.27,-449.67
1833.47,-408.33
1834.67,-472.0
1835.87,-404.0
1837.07,-428.33
1838.26,-497.67
1839.46,-535.67
1840.65,-476.33
1841.85,-443.67
1843.04,-495.0
1844.23,-592.0
1845.42,-466.0
1846.61,-486.0
1847.8,-499.67
1848.98,-484.67
1850.17,-373.33
1851.35,-543.33
1852.54,-440.33
1853.72,-491.33
1854.9,-442.67
1856.09,-563.0
1857.27,-524.33
1858.45,-403.0
1859.62,-460.33
1860.8,-479.33
1861.98,-571.67
1863.15,-460.33
1864.33,-477.67
1865.5,-509.67
1866.68,-400.33
1867.85,-482.0
1869.02,-433.0
1870.19,-617.67
1871.36,-446.67
1872.52,-418.67
1873.69,-413.33
1874.86,-412.0
1876.02,-472.67
1877.19,-405.33
1878.35,-378.0
1879.51,-421.33
1880.67,-506.0
1881.83,-427.33
1882.99,-475.33
1884.15,-371.67
1885.31,-394.0
1886.46,-414.67
1887.62,-498.0
1888.77,-391.33
1889.92,-299.67
1891.08,-331.67
1892.23,-573.33
1893.38,-382.33