File: mAb_degraded_wasatch_plastic/10% Raw + 90% Graded Sample, 200mw,2000ms_data.csv
Wavenumber,Intensities
282.29,-51.0
284.39,-53.33
286.49,-3.33
288.59,-108.0
290.7,-38.33
292.79,-83.0
294.89,-1.0
296.99,-156.0
299.09,-194.0
301.18,-66.67
303.28,-141.67
305.37,-164.0
307.47,-253.67
309.56,-212.67
311.65,-128.67
313.74,-87.67
315.83,-114.67
317.92,-159.67
320.0,-165.67
322.09,-119.67
324.18,-47.0
326.26,-252.33
328.34,-114.67
330.43,-189.67
332.51,-117.67
334.59,-83.33
336.67,-121.67
338.75,-118.0
340.83,-114.0
342.9,-156.33
344.98,-100.67
347.05,-116.67
349.13,-157.0
351.2,-200.33
353.27,-186.0
355.35,-155.0
357.42,-186.33
359.49,-205.67
361.55,-294.33
363.62,-153.0
365.69,-227.67
367.75,-174.33
369.82,-225.67
371.88,-217.67
373.95,-254.0
376.01,-179.0
378.07,-180.0
380.13,-173.33
382.19,-49.33
384.25,-21.67
386.31,-128.33
388.36,-196.67
390.42,42.0
392.47,-178.33
394.53,-54.67
396.58,-127.33
398.63,-148.0
400.68,56.67
402.73,88.0
404.78,69.0
406.83,36.33
408.87,11.67
410.92,40.33
412.97,-58.67
415.01,-18.33
417.05,-103.33
419.1,43.33
421.14,-134.0
423.18,-99.33
425.22,-85.67
427.25,-114.0
429.29,-111.0
431.33,-94.0
433.36,-194.67
435.4,-221.67
437.43,-136.67
439.47,-87.67
441.5,-173.33
443.53,-26.67
445.56,-135.0
447.59,-247.33
449.62,-82.67
451.64,-175.0
453.67,-180.67
455.7,-241.67
457.72,-244.67
459.74,-284.67
461.77,-89.33
463.79,-269.67
465.81,-343.33
467.83,-272.67
469.85,-263.33
471.86,-142.33
473.88,-291.33
475.9,-354.67
477.91,-278.0
479.93,-234.0
481.94,-230.0
483.95,-239.0
485.96,-201.33
487.97,-291.0
489.98,-170.0
491.99,-179.67
494.0,-353.67
496.0,-326.0
498.01,-200.33
500.01,-176.0
502.02,-321.67
504.02,-268.0
506.02,-202.33
508.02,-162.33
510.02,-299.67
512.02,-306.0
514.02,-206.0
516.01,-405.33
518.01,-327.33
520.01,-195.67
522.0,-383.33
523.99,-241.67
525.99,-229.33
527.98,-244.0
529.97,-256.0
531.96,-202.0
533.94,-139.0
535.93,-149.0
537.92,-126.33
539.9,-136.0
541.89,-197.33
543.87,-140.67
545.85,-121.33
547.84,-169.0
549.82,-84.0
551.8,-180.33
553.78,-212.67
555.75,-167.0
557.73,-158.67
559.71,-193.0
561.68,-237.67
563.66,-209.67
565.63,-335.33
567.6,-101.0
569.57,-70.67
571.54,-206.33
573.51,-234.33
575.48,-192.0
577.45,-239.33
579.41,-264.67
581.38,-227.33
583.34,-147.0
585.31,-259.0
587.27,-210.33
589.23,-254.0
591.19,-278.33
593.15,-266.33
595.11,-271.33
597.07,-228.0
599.03,-290.33
600.98,-285.33
602.94,-454.33
604.89,-289.67
606.84,-273.0
608.8,-239.67
610.75,-180.0
612.7,-193.33
614.65,-14.0
616.6,236.67
618.54,512.0
620.49,628.33
622.43,589.67
624.38,411.67
626.32,229.0
628.27,-20.0
630.21,-131.0
632.15,-104.0
634.09,-233.67
636.03,-287.67
637.96,-301.33
639.9,-372.33
641.84,-295.67
643.77,-341.67
645.71,-292.67
647.64,-333.33
649.57,-246.0
651.5,-354.33
653.43,-327.0
655.36,-378.33
657.29,-365.0
659.22,-319.67
661.14,-389.67
663.07,-265.67
664.99,-356.33
666.92,-314.0
668.84,-323.0
670.76,-195.0
672.68,-281.0
674.6,-282.33
676.52,-329.0
678.44,-332.33
680.35,-290.33
682.27,-255.67
684.19,-203.0
686.1,-387.67
688.01,-335.0
689.92,-338.33
691.83,-281.33
693.74,-297.0
695.65,-362.0
697.56,-235.33
699.47,-316.33
701.38,-346.33
703.28,-252.0
705.19,-377.67
707.09,-479.33
708.99,-279.67
710.89,-445.67
712.79,-314.33
714.69,-305.33
716.59,-286.33
718.49,-252.33
720.39,-333.33
722.28,-288.33
724.18,-349.0
726.07,-340.67
727.96,-237.0
729.85,-297.67
731.74,-239.67
733.63,-162.67
735.52,-101.33
737.41,-192.67
739.3,-137.67
741.18,-232.67
743.07,-148.0
744.95,-6.67
746.84,-142.0
748.72,-12.33
750.6,67.33
752.48,29.67
754.36,46.67
756.24,-28.0
758.12,2.67
759.99,52.33
761.87,23.33
763.74,-104.0
765.62,-25.33
767.49,-113.33
769.36,8.33
771.23,-194.67
773.1,-30.0
774.97,7.67
776.84,-77.33
778.7,46.0
780.57,5.33
782.44,109.0
784.3,3.0
786.16,102.33
788.02,261.0
789.89,239.33
791.75,416.33
793.6,411.67
795.46,452.33
797.32,444.33
799.18,322.0
801.03,267.67
802.89,179.33
804.74,33.0
806.59,50.0
808.44,-86.33
810.29,-84.67
812.14,-77.33
813.99,-147.67
815.84,-92.33
817.69,-228.67
819.53,-228.67
821.38,-346.0
823.22,-375.0
825.06,-249.67
826.9,-222.0
828.75,-211.33
830.59,-227.67
832.42,-162.0
834.26,-225.67
836.1,-196.0
837.93,-295.0
839.77,-205.33
841.6,-129.33
843.44,-138.67
845.27,-213.67
847.1,-233.67
848.93,-248.0
850.76,-267.33
852.59,-192.0
854.42,-277.67
856.24,-257.67
858.07,-184.0
859.89,-214.67
861.72,-165.0
863.54,-216.0
865.36,-238.0
867.18,-152.0
869.0,-300.33
870.82,-243.67
872.64,-257.33
874.45,-257.67
876.27,-229.33
878.08,-246.67
879.9,-287.33
881.71,-210.33
883.52,-177.0
885.33,-178.33
887.14,-145.33
888.95,-273.67
890.76,-144.67
892.57,-210.0
894.37,-229.67
896.18,-180.33
897.98,-253.0
899.79,-318.0
901.59,-200.0
903.39,-258.0
905.19,-191.33
906.99,-93.67
908.79,-163.0
910.58,-215.33
912.38,-210.33
914.18,-632.33
915.97,-310.0
917.76,-214.33
919.56,-246.67
921.35,-193.33
923.14,-215.0
924.93,-225.33
926.72,-294.33
928.51,-314.0
930.29,-251.67
932.08,-426.33
933.86,-306.33
935.65,-239.67
937.43,-273.67
939.21,-167.67
940.99,-291.67
942.77,-262.67
944.55,-141.67
946.33,-262.0
948.11,-372.33
949.88,-337.67
951.66,-201.67
953.43,-319.0
955.21,-286.67
956.98,-284.0
958.75,-237.0
960.52,-160.0
962.29,-401.0
964.06,-147.0
965.82,-200.33
967.59,-180.0
969.36,-76.67
971.12,-296.67
972.88,-166.0
974.65,-167.0
976.41,-138.33
978.17,-17.0
979.93,-62.33
981.69,-102.0
983.45,27.0
985.2,82.0
986.96,246.0
988.71,341.67
990.47,590.0
992.22,783.67
993.97,1213.0
995.72,2054.0
997.47,3440.0
999.22,5160.0
1000.97,6344.67
1002.72,5815.33
1004.46,4253.33
1006.21,2820.0
1007.95,1491.0
1009.7,783.67
1011.44,355.67
1013.18,177.67
1014.92,27.0
1016.66,30.33
1018.4,5.33
1020.13,7.67
1021.87,159.67
1023.61,205.33
1025.34,508.67
1027.07,936.0
1028.81,1216.67
1030.54,1384.67
1032.27,1508.0
1034.0,1102.67
1035.73,928.67
1037.46,666.33
1039.18,279.67
1040.91,213.67
1042.63,136.67
1044.36,-78.0
1046.08,-22.0
1047.8,-16.67
1049.52,-94.0
1051.24,-156.33
1052.96,-127.33
1054.68,-173.67
1056.4,-78.33
1058.11,-142.33
1059.83,-207.0
1061.54,-82.0
1063.26,-287.0
1064.97,-94.67
1066.68,-168.33
1068.39,-49.0
1070.1,-32.33
1071.81,-19.0
1073.51,0.67
1075.22,-30.0
1076.93,-10.67
1078.63,-139.67
1080.33,-191.0
1082.04,-126.67
1083.74,-121.67
1085.44,-94.67
1087.14,-120.0
1088.84,-163.0
1090.53,-126.33
1092.23,-81.0
1093.93,-44.67
1095.62,-80.67
1097.32,-105.0
1099.01,-199.67
1100.7,-102.33
1102.39,-149.0
1104.08,-188.67
1105.77,-281.33
1107.46,-193.67
1109.15,-221.0
1110.83,-262.67
1112.52,-263.67
1114.2,-328.67
1115.88,-327.67
1117.57,-306.67
1119.25,-215.33
1120.93,-315.67
1122.61,-348.33
1124.28,-427.67
1125.96,-282.33
1127.64,-386.67
1129.31,-392.33
1130.99,-339.33
1132.66,-269.67
1134.33,-285.0
1136.01,-264.67
1137.68,-214.67
1139.35,-376.0
1141.01,-515.67
1142.68,-181.0
1144.35,-223.33
1146.01,-145.67
1147.68,-177.0
1149.34,-33.33
1151.01,169.67
1152.67,391.0
1154.33,338.0
1155.99,254.0
1157.65,364.67
1159.3,175.0
1160.96,115.0
1162.62,27.67
1164.27,-74.33
1165.93,-72.67
1167.58,-68.33
1169.23,-64.0
1170.88,82.67
1172.53,-10.33
1174.18,62.33
1175.83,224.0
1177.48,364.33
1179.12,538.33
1180.77,725.67
1182.41,743.67
1184.06,525.67
1185.7,496.0
1187.34,492.33
1188.98,445.67
1190.62,386.0
1192.26,422.67
1193.9,509.0
1195.53,593.67
1197.17,526.33
1198.8,621.0
1200.44,480.67
1202.07,515.0
1203.7,434.33
1205.33,327.67
1206.96,355.67
1208.59,179.67
1210.22,146.0
1211.85,127.67
1213.47,115.67
1215.1,-2.33
1216.72,-74.67
1218.34,-82.67
1219.96,-107.33
1221.59,-155.33
1223.21,-220.0
1224.83,-201.33
1226.44,-47.0
1228.06,-187.0
1229.68,-170.67
1231.29,-234.33
1232.91,-201.33
1234.52,-321.33
1236.13,-239.0
1237.74,-220.33
1239.35,-180.0
1240.96,-310.67
1242.57,-157.33
1244.18,-277.67
1245.78,-295.0
1247.39,-313.67
1248.99,-209.33
1250.6,-278.67
1252.2,-334.33
1253.8,-298.67
1255.4,-281.33
1257.0,-265.67
1258.6,-374.67
1260.2,-324.33
1261.8,-282.33
1263.39,-257.33
1264.99,-247.0
1266.58,-260.33
1268.17,-310.67
1269.77,-329.67
1271.36,-303.67
1272.95,-318.0
1274.54,-371.67
1276.12,-303.0
1277.71,-220.67
1279.3,-252.0
1280.88,-267.0
1282.47,-287.67
1284.05,-341.67
1285.63,-241.33
1287.21,-283.67
1288.79,-251.67
1290.37,-277.0
1291.95,-320.0
1293.53,-180.0
1295.1,-268.33
1296.68,-215.33
1298.25,-236.33
1299.83,-278.33
1301.4,-169.33
1302.97,-332.0
1304.54,-140.67
1306.11,-252.0
1307.68,-209.0
1309.25,-68.0
1310.81,-311.67
1312.38,-142.33
1313.94,-216.0
1315.51,-53.0
1317.07,-132.0
1318.63,-196.33
1320.19,-167.0
1321.75,-160.67
1323.31,-123.0
1324.87,-130.67
1326.43,-64.67
1327.98,-118.33
1329.54,-81.0
1331.09,-227.33
1332.64,-175.33
1334.2,-177.67
1335.75,-207.67
1337.3,-140.0
1338.85,-237.0
1340.4,-211.67
1341.94,-211.67
1343.49,-270.0
1345.03,-222.0
1346.58,-203.0
1348.12,-262.0
1349.66,-141.33
1351.21,-329.33
1352.75,-238.33
1354.29,-267.0
1355.82,-242.67
1357.36,-261.33
1358.9,-318.0
1360.43,-268.0
1361.97,-377.67
1363.5,-280.33
1365.03,-294.0
1366.57,-352.0
1368.1,-346.33
1369.63,-224.33
1371.16,-288.33
1372.68,-304.33
1374.21,-271.33
1375.74,-238.67
1377.26,-331.33
1378.78,-289.33
1380.31,-430.33
1381.83,-376.67
1383.35,-476.33
1384.87,-418.33
1386.39,-366.33
1387.91,-474.33
1389.42,-382.0
1390.94,-385.67
1392.46,-407.33
1393.97,-356.0
1395.48,-333.67
1397.0,-442.0
1398.51,-418.33
1400.02,-361.67
1401.53,-340.67
1403.04,-520.67
1404.54,-347.67
1406.05,-329.33
1407.55,-394.0
1409.06,-434.33
1410.56,-340.33
1412.06,-416.67
1413.57,-362.33
1415.07,-288.67
1416.57,-339.67
1418.07,-466.0
1419.56,-462.0
1421.06,-404.0
1422.56,-418.33
1424.05,-361.0
1425.54,-399.33
1427.04,-417.33
1428.53,-273.67
1430.02,-494.67
1431.51,-398.0
1433.0,-371.67
1434.49,-311.0
1435.97,-323.0
1437.46,-293.0
1438.94,-263.33
1440.43,-284.0
1441.91,-205.0
1443.39,-153.0
1444.88,-146.33
1446.36,-130.67
1447.83,-96.0
1449.31,-61.67
1450.79,-81.0
1452.27,-222.0
1453.74,-116.67
1455.22,-265.33
1456.69,-155.0
1458.16,-254.67
1459.63,-293.67
1461.1,-342.33
1462.57,-407.67
1464.04,-490.67
1465.51,-436.33
1466.98,-329.67
1468.44,-380.67
1469.91,-451.0
1471.37,-382.0
1472.83,-393.33
1474.3,-450.67
1475.76,-426.33
1477.22,-520.67
1478.67,-383.33
1480.13,-387.0
1481.59,-457.67
1483.05,-397.0
1484.5,-452.0
1485.95,-444.67
1487.41,-407.67
1488.86,-560.33
1490.31,-333.0
1491.76,-392.0
1493.21,-426.67
1494.66,-314.0
1496.11,-327.33
1497.55,-387.0
1499.0,-279.67
1500.44,-266.0
1501.88,-277.33
1503.33,-388.0
1504.77,-459.33
1506.21,-423.33
1507.65,-429.67
1509.09,-413.67
1510.52,-357.67
1511.96,-410.33
1513.4,-444.67
1514.83,-437.67
1516.26,-483.33
1517.7,-396.0
1519.13,-348.67
1520.56,-415.0
1521.99,-399.0
1523.42,-429.0
1524.85,-390.33
1526.27,-512.0
1527.7,-390.67
1529.12,-384.33
1530.55,-484.67
1531.97,-433.33
1533.39,-476.33
1534.81,-352.67
1536.23,-338.67
1537.65,-455.33
1539.07,-420.33
1540.49,-363.67
1541.9,-377.33
1543.32,-532.0
1544.73,-433.0
1546.15,-430.33
1547.56,-398.0
1548.97,-414.33
1550.38,-481.0
1551.79,-434.0
1553.2,-370.0
1554.61,-401.33
1556.01,-350.67
1557.42,-383.33
1558.82,-366.67
1560.22,-407.0
1561.63,-327.33
1563.03,-387.67
1564.43,-344.0
1565.83,-344.67
1567.23,-502.33
1568.63,-273.67
1570.02,-381.67
1571.42,-393.0
1572.81,-345.33
1574.21,-392.33
1575.6,-451.33
1576.99,-356.0
1578.38,-232.33
1579.77,-144.33
1581.16,-186.0
1582.55,-126.0
1583.94,85.67
1585.32,-30.33
1586.71,-89.33
1588.09,-61.33
1589.47,-344.33
1590.86,-223.67
1592.24,-218.67
1593.62,-149.67
1595.0,-124.33
1596.38,96.0
1597.75,-133.67
1599.13,255.33
1600.51,433.67
1601.88,364.67
1603.25,462.0
1604.63,404.67
1606.0,365.0
1607.37,225.67
1608.74,-2.67
1610.11,-111.33
1611.47,-161.33
1612.84,-376.0
1614.21,-390.0
1615.57,-269.0
1616.93,-258.0
1618.3,-511.33
1619.66,-365.33
1621.02,-282.0
1622.38,-356.0
1623.74,-467.67
1625.1,-498.33
1626.45,-320.67
1627.81,-387.67
1629.16,-300.33
1630.52,-418.33
1631.87,-339.67
1633.22,-383.33
1634.57,-435.0
1635.92,-430.33
1637.27,-449.67
1638.62,-533.33
1639.97,-439.67
1641.32,-486.0
1642.66,-418.33
1644.01,-324.33
1645.35,-470.0
1646.69,-357.67
1648.03,-415.67
1649.37,-476.0
1650.71,-462.33
1652.05,-514.0
1653.39,-499.67
1654.73,-474.0
1656.06,-416.67
1657.4,-442.0
1658.73,-392.67
1660.06,-523.67
1661.39,-430.67
1662.72,-530.0
1664.05,-410.0
1665.38,-518.67
1666.71,-437.33
1668.04,-318.67
1669.36,-372.33
1670.69,-533.67
1672.01,-451.0
1673.34,-470.67
1674.66,-414.33
1675.98,-406.33
1677.3,-541.67
1678.62,-384.33
1679.94,-445.33
1681.25,-441.0
1682.57,-442.33
1683.88,-482.33
1685.2,-398.67
1686.51,-498.0
1687.82,-444.67
1689.14,-315.33
1690.45,-549.33
1691.76,-425.67
1693.06,-475.67
1694.37,-442.67
1695.68,-417.67
1696.98,-498.67
1698.29,-638.0
1699.59,-455.67
1700.89,-426.67
1702.2,-432.67
1703.5,-508.0
1704.8,-406.67
1706.1,-463.0
1707.39,-468.33
1708.69,-542.67
1709.99,-318.67
1711.28,-448.67
1712.57,-458.67
1713.87,-540.67
1715.16,-449.33
1716.45,-399.33
1717.74,-423.0
1719.03,-508.67
1720.32,-579.33
1721.6,-436.33
1722.89,-558.33
1724.18,-434.33
1725.46,-386.0
1726.74,-477.67
1728.03,-507.33
1729.31,-423.0
1730.59,-513.33
1731.87,-444.33
1733.15,-427.33
1734.42,-365.67
1735.7,-464.33
1736.97,-494.0
1738.25,-476.67
1739.52,-430.33
1740.79,-462.0
1742.07,-483.33
1743.34,-487.67
1744.61,-414.67
1745.88,-406.33
1747.14,-442.67
1748.41,-471.33
1749.68,-481.33
1750.94,-560.0
1752.2,-450.67
1753.47,-496.0
1754.73,-367.67
1755.99,-399.67
1757.25,-440.67
1758.51,-412.33
1759.77,-535.0
1761.02,-410.33
1762.28,-565.67
1763.54,-492.33
1764.79,-498.67
1766.04,-447.0
1767.29,-412.0
1768.55,-487.33
1769.8,-457.33
1771.05,-560.67
1772.29,-418.67
1773.54,-452.33
1774.79,-481.33
1776.03,-538.0
1777.28,-578.33
1778.52,-520.67
1779.76,-394.0
1781.01,-527.67
1782.25,-418.0
1783.49,-393.67
1784.72,-546.67
1785.96,-476.0
1787.2,-481.0
1788.43,-402.67
1789.67,-578.67
1790.9,-512.33
1792.14,-497.67
1793.37,-592.67
1794.6,-547.33
1795.83,-515.33
1797.06,-441.33
1798.28,-434.33
1799.51,-481.33
1800.74,-517.0
1801.96,-487.33
1803.19,-461.33
1804.41,-460.33
1805.63,-616.33
1806.85,-565.0
1808.07,-497.33
1809.29,-527.67
1810.51,-509.0
1811.73,-484.67
1812.94,-349.33
1814.16,-511.0
1815.37,-394.0
1816.59,-449.33
1817.8,-526.33
1819.01,-520.0
1820.22,-432.0
1821.43,-501.0
1822.64,-503.67
1823.85,-473.33
1825.05,-414.33
1826.26,-480.0
1827.46,-475.67
1828.67,-418.67
1829.87,-450.67
1831.07,-454.67
1832.27,-495.0
1833.47,-455.0
1834.67,-512.67
1835.87,-449.67
1837.07,-476.33
1838.26,-546.67
1839.46,-575.33
1840.65,-520.67
1841.85,-479.33
1843.04,-541.67
1844.23,-629.67
1845.42,-503.67
1846.61,-511.33
1847.8,-532.33
1848.98,-503.67
1850.17,-415.67
1851.35,-569.67
1852.54,-479.67
1853.72,-538.67
1854.9,-479.67
1856.09,-597.33
1857.27,-543.33
1858.45,-427.0
1859.62,-486.67
1860.8,-525.33
1861.98,-613.67
1863.15,-485.67
1864.33,-515.0
1865.5,-539.67
1866.68,-430.67
1867.85,-511.33
1869.02,-475.0
1870.19,-651.67
1871.36,-478.0
1872.52,-450.67
1873.69,-447.67
1874.86,-458.33
1876.02,-518.67
1877.19,-439.67
1878.35,-409.33
1879.51,-454.67
1880.67,-516.67
1881.83,-464.67
1882.99,-510.0
1884.15,-408.67
1885.31,-416.33
1886.46,-442.0
1887.62,-515.0
1888.77,-438.0
1889.92,-340.0
1891.08,-369.33
1892.23,-601.0
1893.38,-414.33