File: mAb_degraded_wasatch_plastic/20% Raw + 80% Graded Sample, 200mW,2000ms_data.csv
Wavenumber,Intensities
282.29,985.67
284.39,974.67
286.49,978.67
288.59,865.33
290.7,924.0
292.79,851.0
294.89,908.67
296.99,717.67
299.09,658.0
301.18,798.33
303.28,715.0
305.37,686.33
307.47,576.0
309.56,623.0
311.65,718.0
313.74,759.33
315.83,715.67
317.92,688.0
320.0,661.67
322.09,719.33
324.18,790.67
326.26,590.67
328.34,748.67
330.43,648.0
332.51,715.33
334.59,773.33
336.67,711.33
338.75,707.67
340.83,706.33
342.9,676.33
344.98,706.67
347.05,704.0
349.13,640.67
351.2,606.0
353.27,603.67
355.35,633.67
357.42,613.33
359.49,606.33
361.55,511.67
363.62,655.67
365.69,590.0
367.75,641.33
369.82,582.0
371.88,614.0
373.95,566.33
376.01,686.33
378.07,681.0
380.13,740.33
382.19,856.0
384.25,916.67
386.31,808.67
388.36,758.67
390.42,1011.67
392.47,790.0
394.53,950.67
396.58,891.67
398.63,904.67
400.68,1142.67
402.73,1160.0
404.78,1168.67
406.83,1161.0
408.87,1133.33
410.92,1133.67
412.97,999.67
415.01,1004.67
417.05,900.33
419.1,1032.33
421.14,836.33
423.18,827.0
425.22,833.33
427.25,786.0
429.29,786.0
431.33,768.0
433.36,678.67
435.4,637.67
437.43,716.33
439.47,762.67
441.5,674.67
443.53,803.67
445.56,679.0
447.59,555.0
449.62,747.33
451.64,598.33
453.67,586.33
455.7,490.67
457.72,497.0
459.74,449.33
461.77,613.67
463.79,447.0
465.81,365.67
467.83,433.67
469.85,409.67
471.86,538.67
473.88,403.33
475.9,337.0
477.91,406.67
479.93,441.67
481.94,448.0
483.95,432.0
485.96,473.0
487.97,392.33
489.98,495.0
491.99,506.0
494.0,325.0
496.0,318.0
498.01,466.0
500.01,467.0
502.02,315.0
504.02,392.67
506.02,433.0
508.02,479.33
510.02,333.67
512.02,325.67
514.02,427.0
516.01,246.0
518.01,309.0
520.01,459.67
522.0,252.33
523.99,392.33
525.99,421.67
527.98,441.67
529.97,432.67
531.96,516.67
533.94,585.0
535.93,601.67
537.92,641.67
539.9,643.33
541.89,610.0
543.87,636.67
545.85,630.33
547.84,589.0
549.82,662.33
551.8,563.0
553.78,532.67
555.75,536.67
557.73,544.0
559.71,511.67
561.68,454.33
563.66,502.67
565.63,351.33
567.6,580.0
569.57,603.0
571.54,454.33
573.51,443.33
575.48,472.33
577.45,402.67
579.41,389.67
581.38,413.0
583.34,477.33
585.31,361.33
587.27,426.67
589.23,379.0
591.19,322.67
593.15,326.33
595.11,349.67
597.07,390.0
599.03,317.33
600.98,324.0
602.94,176.0
604.89,327.67
606.84,364.67
608.8,412.0
610.75,555.33
612.7,633.0
614.65,1027.67
616.6,1644.67
618.54,2482.67
620.49,3069.67
622.43,2991.33
624.38,2342.67
626.32,1609.0
628.27,1027.67
630.21,710.0
632.15,635.0
634.09,462.33
636.03,336.33
637.96,292.67
639.9,193.0
641.84,261.67
643.77,196.33
645.71,227.0
647.64,175.33
649.57,254.67
651.5,140.67
653.43,166.0
655.36,108.67
657.29,125.0
659.22,155.0
661.14,83.0
663.07,221.67
664.99,116.67
666.92,140.33
668.84,133.67
670.76,273.33
672.68,171.0
674.6,184.67
676.52,132.0
678.44,129.67
680.35,188.67
682.27,202.33
684.19,253.0
686.1,64.67
688.01,129.67
689.92,103.67
691.83,175.67
693.74,166.67
695.65,129.0
697.56,264.67
699.47,201.0
701.38,185.0
703.28,281.0
705.19,156.33
707.09,2.0
708.99,197.33
710.89,11.0
712.79,144.33
714.69,159.33
716.59,158.0
718.49,212.33
720.39,113.0
722.28,158.67
724.18,110.0
726.07,134.0
727.96,250.67
729.85,217.33
731.74,336.0
733.63,450.33
735.52,573.33
737.41,537.33
739.3,625.67
741.18,586.0
743.07,721.0
744.95,861.33
746.84,744.0
748.72,920.0
750.6,1040.67
752.48,1039.67
754.36,1101.67
756.24,1060.67
758.12,1157.33
759.99,1140.67
761.87,1130.0
763.74,969.0
765.62,1057.0
767.49,903.67
769.36,1004.67
771.23,758.33
773.1,940.0
774.97,943.0
776.84,851.33
778.7,1000.0
780.57,1018.33
782.44,1170.0
784.3,1167.33
786.16,1361.33
788.02,1635.0
789.89,1758.0
791.75,2086.67
793.6,2153.33
795.46,2251.0
797.32,2189.67
799.18,1975.67
801.03,1786.33
802.89,1509.33
804.74,1212.67
806.59,1122.0
808.44,908.33
810.29,854.33
812.14,789.33
813.99,641.0
815.84,641.33
817.69,455.0
819.53,401.67
821.38,251.0
823.22,199.33
825.06,312.33
826.9,317.0
828.75,359.33
830.59,354.67
832.42,428.0
834.26,431.0
836.1,479.67
837.93,394.33
839.77,529.0
841.6,614.33
843.44,612.0
845.27,535.0
847.1,450.67
848.93,409.0
850.76,350.67
852.59,420.67
854.42,327.33
856.24,335.0
858.07,435.33
859.89,386.67
861.72,421.33
863.54,366.33
865.36,340.33
867.18,432.67
869.0,267.33
870.82,326.0
872.64,311.0
874.45,289.33
876.27,320.33
878.08,302.67
879.9,253.0
881.71,346.67
883.52,349.33
885.33,338.0
887.14,399.67
888.95,276.0
890.76,402.0
892.57,345.0
894.37,350.0
896.18,403.33
897.98,348.67
899.79,342.67
901.59,459.67
903.39,467.33
905.19,504.67
906.99,594.67
908.79,472.33
910.58,430.33
912.38,372.33
914.18,-85.33
915.97,230.0
917.76,287.0
919.56,223.67
921.35,289.33
923.14,249.33
924.93,224.33
926.72,152.33
928.51,126.33
930.29,189.0
932.08,16.0
933.86,151.0
935.65,209.67
937.43,198.0
939.21,279.0
940.99,187.0
942.77,206.0
944.55,306.33
946.33,214.0
948.11,101.0
949.88,157.33
951.66,290.0
953.43,150.0
955.21,194.0
956.98,221.67
958.75,257.67
960.52,352.33
962.29,132.0
964.06,427.67
965.82,362.0
967.59,394.33
969.36,515.67
971.12,289.67
972.88,415.0
974.65,456.67
976.41,528.67
978.17,714.67
979.93,721.67
981.69,776.33
983.45,1010.0
985.2,1246.33
986.96,1625.33
988.71,2012.33
990.47,2545.67
992.22,3140.33
993.97,4293.33
995.72,6619.33
997.47,10585.67
999.22,15563.33
1000.97,19106.0
1002.72,18118.33
1004.46,13748.0
1006.21,9157.0
1007.95,5438.67
1009.7,3268.0
1011.44,2052.33
1013.18,1457.0
1014.92,1045.67
1016.66,980.67
1018.4,970.0
1020.13,1042.67
1021.87,1392.33
1023.61,1718.0
1025.34,2522.0
1027.07,3557.0
1028.81,4377.0
1030.54,4903.0
1032.27,5065.0
1034.0,4374.33
1035.73,3667.0
1037.46,2860.33
1039.18,2033.0
1040.91,1601.67
1042.63,1322.67
1044.36,972.0
1046.08,905.67
1047.8,822.67
1049.52,723.67
1051.24,601.67
1052.96,625.67
1054.68,575.67
1056.4,659.33
1058.11,577.33
1059.83,532.33
1061.54,684.67
1063.26,515.33
1064.97,730.67
1066.68,667.0
1068.39,821.33
1070.1,825.67
1071.81,822.0
1073.51,834.67
1075.22,814.0
1076.93,789.67
1078.63,676.67
1080.33,592.0
1082.04,634.0
1083.74,626.67
1085.44,648.0
1087.14,622.67
1088.84,567.33
1090.53,604.33
1092.23,682.33
1093.93,698.67
1095.62,672.33
1097.32,635.67
1099.01,534.67
1100.7,616.67
1102.39,539.67
1104.08,462.0
1105.77,328.67
1107.46,363.0
1109.15,303.67
1110.83,221.33
1112.52,221.67
1114.2,133.33
1115.88,97.33
1117.57,116.33
1119.25,172.0
1120.93,70.0
1122.61,17.33
1124.28,-51.67
1125.96,65.33
1127.64,-17.33
1129.31,-53.33
1130.99,18.67
1132.66,98.67
1134.33,79.33
1136.01,92.33
1137.68,185.0
1139.35,40.67
1141.01,-46.0
1142.68,331.67
1144.35,370.67
1146.01,527.67
1147.68,605.0
1149.34,946.33
1151.01,1390.0
1152.67,1887.0
1154.33,2032.67
1155.99,1977.67
1157.65,1921.33
1159.3,1554.0
1160.96,1295.0
1162.62,1047.67
1164.27,863.0
1165.93,777.67
1167.58,775.67
1169.23,787.67
1170.88,981.0
1172.53,963.0
1174.18,1179.67
1175.83,1547.67
1177.48,1962.33
1179.12,2457.33
1180.77,2865.33
1182.41,2942.33
1184.06,2617.67
1185.7,2475.33
1187.34,2359.0
1188.98,2240.0
1190.62,2204.67
1192.26,2256.33
1193.9,2387.0
1195.53,2523.33
1197.17,2485.67
1198.8,2581.33
1200.44,2407.33
1202.07,2422.0
1203.7,2247.0
1205.33,2029.67
1206.96,1894.67
1208.59,1581.0
1210.22,1402.33
1211.85,1222.0
1213.47,1109.33
1215.1,885.0
1216.72,755.67
1218.34,713.33
1219.96,640.67
1221.59,557.33
1223.21,462.33
1224.83,477.67
1226.44,592.33
1228.06,433.0
1229.68,425.67
1231.29,325.0
1232.91,327.67
1234.52,194.0
1236.13,249.33
1237.74,272.0
1239.35,308.0
1240.96,167.33
1242.57,313.33
1244.18,181.67
1245.78,170.67
1247.39,163.67
1248.99,239.0
1250.6,176.67
1252.2,126.33
1253.8,145.33
1255.4,142.33
1257.0,171.0
1258.6,54.0
1260.2,102.33
1261.8,138.33
1263.39,162.67
1264.99,168.33
1266.58,144.67
1268.17,111.33
1269.77,72.33
1271.36,111.67
1272.95,113.67
1274.54,48.33
1276.12,111.67
1277.71,203.33
1279.3,164.33
1280.88,138.0
1282.47,147.67
1284.05,83.0
1285.63,196.33
1287.21,158.67
1288.79,195.33
1290.37,197.33
1291.95,152.0
1293.53,317.33
1295.1,230.0
1296.68,315.0
1298.25,283.33
1299.83,269.67
1301.4,367.0
1302.97,213.67
1304.54,438.0
1306.11,326.67
1307.68,368.0
1309.25,530.67
1310.81,267.0
1312.38,469.0
1313.94,409.0
1315.51,610.33
1317.07,560.67
1318.63,507.67
1320.19,539.33
1321.75,601.67
1323.31,664.0
1324.87,627.67
1326.43,725.0
1327.98,670.0
1329.54,687.33
1331.09,545.33
1332.64,580.0
1334.2,582.0
1335.75,479.67
1337.3,505.33
1338.85,376.67
1340.4,391.33
1341.94,323.67
1343.49,259.0
1345.03,292.0
1346.58,302.67
1348.12,214.0
1349.66,313.67
1351.21,123.67
1352.75,192.33
1354.29,180.0
1355.82,201.0
1357.36,156.0
1358.9,111.67
1360.43,153.33
1361.97,43.67
1363.5,122.0
1365.03,119.0
1366.57,53.0
1368.1,70.0
1369.63,209.67
1371.16,114.33
1372.68,84.67
1374.21,127.33
1375.74,135.67
1377.26,24.0
1378.78,43.0
1380.31,-125.33
1381.83,-100.33
1383.35,-191.33
1384.87,-163.67
1386.39,-123.33
1387.91,-219.0
1389.42,-155.67
1390.94,-151.0
1392.46,-185.67
1393.97,-135.67
1395.48,-117.0
1397.0,-220.0
1398.51,-205.67
1400.02,-138.0
1401.53,-117.0
1403.04,-306.67
1404.54,-126.67
1406.05,-112.33
1407.55,-182.0
1409.06,-233.67
1410.56,-146.67
1412.06,-219.0
1413.57,-172.67
1415.07,-85.0
1416.57,-148.67
1418.07,-273.67
1419.56,-256.67
1421.06,-197.67
1422.56,-212.33
1424.05,-170.0
1425.54,-177.0
1427.04,-212.0
1428.53,-60.0
1430.02,-257.67
1431.51,-145.67
1433.0,-93.67
1434.49,-2.67
1435.97,27.67
1437.46,109.67
1438.94,186.0
1440.43,206.67
1441.91,324.33
1443.39,415.33
1444.88,492.67
1446.36,556.0
1447.83,633.33
1449.31,699.0
1450.79,696.0
1452.27,485.33
1453.74,583.33
1455.22,354.33
1456.69,348.0
1458.16,191.0
1459.63,70.0
1461.1,-30.33
1462.57,-130.33
1464.04,-244.0
1465.51,-200.67
1466.98,-125.33
1468.44,-180.67
1469.91,-258.67
1471.37,-181.0
1472.83,-199.67
1474.3,-263.0
1475.76,-236.67
1477.22,-332.67
1478.67,-217.33
1480.13,-216.0
1481.59,-287.33
1483.05,-202.33
1484.5,-294.0
1485.95,-267.0
1487.41,-216.0
1488.86,-376.67
1490.31,-139.33
1491.76,-178.0
1493.21,-222.67
1494.66,-117.33
1496.11,-104.67
1497.55,-207.33
1499.0,-114.0
1500.44,-91.33
1501.88,-113.33
1503.33,-216.33
1504.77,-306.67
1506.21,-263.67
1507.65,-275.0
1509.09,-251.67
1510.52,-212.67
1511.96,-252.33
1513.4,-278.33
1514.83,-279.67
1516.26,-338.67
1517.7,-236.67
1519.13,-191.67
1520.56,-254.33
1521.99,-246.33
1523.42,-285.0
1524.85,-249.33
1526.27,-370.0
1527.7,-254.33
1529.12,-234.67
1530.55,-327.0
1531.97,-293.67
1533.39,-329.33
1534.81,-206.0
1536.23,-199.0
1537.65,-285.67
1539.07,-254.67
1540.49,-205.33
1541.9,-204.67
1543.32,-365.0
1544.73,-273.0
1546.15,-258.33
1547.56,-223.33
1548.97,-255.33
1550.38,-325.0
1551.79,-261.67
1553.2,-205.33
1554.61,-228.67
1556.01,-167.67
1557.42,-201.33
1558.82,-169.67
1560.22,-214.67
1561.63,-142.0
1563.03,-210.67
1564.43,-140.33
1565.83,-129.67
1567.23,-298.67
1568.63,-36.0
1570.02,-128.67
1571.42,-134.67
1572.81,-59.67
1574.21,-53.33
1575.6,-76.67
1576.99,83.0
1578.38,288.33
1579.77,507.33
1581.16,635.0
1582.55,794.0
1583.94,1050.33
1585.32,879.33
1586.71,711.67
1588.09,603.67
1589.47,262.0
1590.86,375.0
1592.24,389.0
1593.62,504.67
1595.0,664.0
1596.38,1026.33
1597.75,1037.67
1599.13,1661.33
1600.51,2126.67
1601.88,2244.0
1603.25,2310.0
1604.63,2160.0
1606.0,1889.0
1607.37,1472.33
1608.74,1007.0
1610.11,688.67
1611.47,483.33
1612.84,151.67
1614.21,69.33
1615.57,145.0
1616.93,81.33
1618.3,-163.0
1619.66,-64.33
1621.02,1.67
1622.38,-79.67
1623.74,-209.0
1625.1,-238.0
1626.45,-54.33
1627.81,-149.67
1629.16,-50.67
1630.52,-190.67
1631.87,-98.0
1633.22,-163.0
1634.57,-214.67
1635.92,-205.0
1637.27,-241.0
1638.62,-317.33
1639.97,-247.0
1641.32,-276.0
1642.66,-216.67
1644.01,-137.33
1645.35,-265.0
1646.69,-161.33
1648.03,-221.33
1649.37,-282.0
1650.71,-288.67
1652.05,-323.0
1653.39,-319.0
1654.73,-313.67
1656.06,-243.33
1657.4,-276.33
1658.73,-215.67
1660.06,-336.33
1661.39,-244.67
1662.72,-356.67
1664.05,-244.67
1665.38,-354.67
1666.71,-276.0
1668.04,-153.0
1669.36,-211.0
1670.69,-380.67
1672.01,-276.33
1673.34,-330.0
1674.66,-246.67
1675.98,-247.67
1677.3,-389.67
1678.62,-231.0
1679.94,-285.67
1681.25,-289.0
1682.57,-294.0
1683.88,-339.33
1685.2,-247.0
1686.51,-349.67
1687.82,-313.33
1689.14,-190.0
1690.45,-428.0
1691.76,-296.33
1693.06,-352.67
1694.37,-324.0
1695.68,-302.33
1696.98,-388.0
1698.29,-528.0
1699.59,-353.33
1700.89,-323.0
1702.2,-327.67
1703.5,-406.67
1704.8,-302.67
1706.1,-371.67
1707.39,-365.67
1708.69,-439.67
1709.99,-237.33
1711.28,-356.33
1712.57,-365.67
1713.87,-447.0
1715.16,-363.33
1716.45,-314.0
1717.74,-317.33
1719.03,-435.33
1720.32,-488.33
1721.6,-357.33
1722.89,-476.0
1724.18,-348.33
1725.46,-316.33
1726.74,-403.0
1728.03,-430.0
1729.31,-344.67
1730.59,-438.0
1731.87,-375.67
1733.15,-351.67
1734.42,-291.0
1735.7,-393.67
1736.97,-428.0
1738.25,-414.33
1739.52,-368.67
1740.79,-382.33
1742.07,-421.33
1743.34,-409.0
1744.61,-337.0
1745.88,-348.0
1747.14,-383.0
1748.41,-414.67
1749.68,-412.0
1750.94,-502.67
1752.2,-389.67
1753.47,-422.33
1754.73,-305.33
1755.99,-339.0
1757.25,-379.67
1758.51,-346.33
1759.77,-479.33
1761.02,-341.67
1762.28,-506.0
1763.54,-420.0
1764.79,-443.67
1766.04,-398.67
1767.29,-346.67
1768.55,-427.0
1769.8,-392.0
1771.05,-497.0
1772.29,-364.33
1773.54,-397.0
1774.79,-428.0
1776.03,-472.33
1777.28,-525.0
1778.52,-478.67
1779.76,-336.0
1781.01,-456.67
1782.25,-350.67
1783.49,-353.0
1784.72,-486.0
1785.96,-428.67
1787.2,-421.67
1788.43,-358.33
1789.67,-512.0
1790.9,-446.67
1792.14,-438.67
1793.37,-538.33
1794.6,-497.0
1795.83,-462.67
1797.06,-380.33
1798.28,-383.67
1799.51,-434.0
1800.74,-464.67
1801.96,-416.33
1803.19,-412.33
1804.41,-418.33
1805.63,-557.0
1806.85,-514.33
1808.07,-449.0
1809.29,-460.33
1810.51,-443.67
1811.73,-433.33
1812.94,-288.67
1814.16,-451.33
1815.37,-345.33
1816.59,-396.33
1817.8,-469.0
1819.01,-460.67
1820.22,-397.33
1821.43,-464.67
1822.64,-456.33
1823.85,-428.67
1825.05,-358.67
1826.26,-430.33
1827.46,-439.33
1828.67,-378.33
1829.87,-420.0
1831.07,-420.67
1832.27,-457.0
1833.47,-403.0
1834.67,-477.0
1835.87,-396.33
1837.07,-432.67
1838.26,-496.0
1839.46,-523.67
1840.65,-474.0
1841.85,-443.67
1843.04,-494.67
1844.23,-574.33
1845.42,-463.33
1846.61,-459.67
1847.8,-495.67
1848.98,-458.0
1850.17,-373.33
1851.35,-535.67
1852.54,-449.33
1853.72,-492.67
1854.9,-440.0
1856.09,-553.0
1857.27,-514.33
1858.45,-406.67
1859.62,-458.0
1860.8,-475.67
1861.98,-570.33
1863.15,-459.0
1864.33,-470.0
1865.5,-507.0
1866.68,-396.67
1867.85,-469.33
1869.02,-426.0
1870.19,-601.67
1871.36,-439.0
1872.52,-406.67
1873.69,-399.67
1874.86,-418.33
1876.02,-478.0
1877.19,-403.0
1878.35,-376.33
1879.51,-419.33
1880.67,-478.67
1881.83,-423.67
1882.99,-483.0
1884.15,-373.0
1885.31,-384.67
1886.46,-411.0
1887.62,-481.33
1888.77,-387.0
1889.92,-294.33
1891.08,-337.0
1892.23,-569.33
1893.38,-377.33