File: mAb_degraded_wasatch_plastic/40% Raw + 60% Graded Sample, 200mw, 2000ms_data.csv
Wavenumber,Intensities
282.29,1868.0
284.39,1819.0
286.49,1804.0
288.59,1560.0
290.7,1644.0
292.79,1555.0
294.89,1545.0
296.99,1372.0
299.09,1291.0
301.18,1372.0
303.28,1265.0
305.37,1219.0
307.47,1136.0
309.56,1192.0
311.65,1284.0
313.74,1352.0
315.83,1276.0
317.92,1294.0
320.0,1295.0
322.09,1379.0
324.18,1450.0
326.26,1264.0
328.34,1417.0
330.43,1340.0
332.51,1431.0
334.59,1439.0
336.67,1337.0
338.75,1413.0
340.83,1375.0
342.9,1326.0
344.98,1371.0
347.05,1276.0
349.13,1242.0
351.2,1150.0
353.27,1177.0
355.35,1190.0
357.42,1135.0
359.49,1151.0
361.55,1037.0
363.62,1207.0
365.69,1168.0
367.75,1245.0
369.82,1196.0
371.88,1340.0
373.95,1299.0
376.01,1443.0
378.07,1477.0
380.13,1557.0
382.19,1777.0
384.25,1894.0
386.31,1815.0
388.36,1821.0
390.42,2165.0
392.47,1971.0
394.53,2168.0
396.58,2199.0
398.63,2232.0
400.68,2566.0
402.73,2703.0
404.78,2822.0
406.83,2757.0
408.87,2727.0
410.92,2669.0
412.97,2402.0
415.01,2293.0
417.05,2062.0
419.1,2065.0
421.14,1800.0
423.18,1774.0
425.22,1732.0
427.25,1636.0
429.29,1534.0
431.33,1541.0
433.36,1432.0
435.4,1291.0
437.43,1409.0
439.47,1397.0
441.5,1253.0
443.53,1386.0
445.56,1213.0
447.59,1085.0
449.62,1226.0
451.64,1029.0
453.67,981.0
455.7,881.0
457.72,820.0
459.74,725.0
461.77,900.0
463.79,719.0
465.81,615.0
467.83,679.0
469.85,647.0
471.86,751.0
473.88,630.0
475.9,574.0
477.91,585.0
479.93,645.0
481.94,638.0
483.95,608.0
485.96,661.0
487.97,600.0
489.98,714.0
491.99,660.0
494.0,501.0
496.0,543.0
498.01,664.0
500.01,672.0
502.02,573.0
504.02,630.0
506.02,683.0
508.02,713.0
510.02,580.0
512.02,604.0
514.02,744.0
516.01,524.0
518.01,653.0
520.01,764.0
522.0,619.0
523.99,782.0
525.99,851.0
527.98,896.0
529.97,919.0
531.96,1086.0
533.94,1268.0
535.93,1333.0
537.92,1401.0
539.9,1435.0
541.89,1378.0
543.87,1458.0
545.85,1416.0
547.84,1345.0
549.82,1351.0
551.8,1249.0
553.78,1215.0
555.75,1254.0
557.73,1230.0
559.71,1118.0
561.68,1089.0
563.66,1109.0
565.63,984.0
567.6,1189.0
569.57,1219.0
571.54,1002.0
573.51,980.0
575.48,991.0
577.45,900.0
579.41,880.0
581.38,851.0
583.34,915.0
585.31,771.0
587.27,803.0
589.23,786.0
591.19,721.0
593.15,740.0
595.11,756.0
597.07,797.0
599.03,740.0
600.98,748.0
602.94,623.0
604.89,786.0
606.84,920.0
608.8,1063.0
610.75,1418.0
612.7,1834.0
614.65,2912.0
616.6,4720.0
618.54,7275.0
620.49,9097.0
622.43,8786.0
624.38,6570.0
626.32,4355.0
628.27,2764.0
630.21,1914.0
632.15,1511.0
634.09,1165.0
636.03,877.0
637.96,732.0
639.9,532.0
641.84,528.0
643.77,425.0
645.71,456.0
647.64,364.0
649.57,456.0
651.5,334.0
653.43,312.0
655.36,247.0
657.29,224.0
659.22,293.0
661.14,197.0
663.07,300.0
664.99,243.0
666.92,262.0
668.84,254.0
670.76,387.0
672.68,303.0
674.6,292.0
676.52,251.0
678.44,232.0
680.35,319.0
682.27,296.0
684.19,361.0
686.1,175.0
688.01,247.0
689.92,258.0
691.83,338.0
693.74,378.0
695.65,334.0
697.56,535.0
699.47,554.0
701.38,543.0
703.28,634.0
705.19,505.0
707.09,316.0
708.99,425.0
710.89,224.0
712.79,353.0
714.69,349.0
716.59,387.0
718.49,413.0
720.39,316.0
722.28,411.0
724.18,357.0
726.07,429.0
727.96,619.0
729.85,679.0
731.74,941.0
733.63,1226.0
735.52,1542.0
737.41,1642.0
739.3,1882.0
741.18,1959.0
743.07,2228.0
744.95,2369.0
746.84,2387.0
748.72,2681.0
750.6,2920.0
752.48,3104.0
754.36,3288.0
756.24,3341.0
758.12,3497.0
759.99,3547.0
761.87,3399.0
763.74,3309.0
765.62,3304.0
767.49,3133.0
769.36,3121.0
771.23,2840.0
773.1,2817.0
774.97,2833.0
776.84,2756.0
778.7,2978.0
780.57,3140.0
782.44,3539.0
784.3,3858.0
786.16,4471.0
788.02,5205.0
789.89,5726.0
791.75,6382.0
793.6,6822.0
795.46,7041.0
797.32,7032.0
799.18,6349.0
801.03,5658.0
802.89,4824.0
804.74,4074.0
806.59,3601.0
808.44,3048.0
810.29,2764.0
812.14,2578.0
813.99,2166.0
815.84,1952.0
817.69,1566.0
819.53,1360.0
821.38,1141.0
823.22,968.0
825.06,1070.0
826.9,1099.0
828.75,1101.0
830.59,1181.0
832.42,1322.0
834.26,1465.0
836.1,1595.0
837.93,1701.0
839.77,1880.0
841.6,1993.0
843.44,1925.0
845.27,1766.0
847.1,1667.0
848.93,1542.0
850.76,1382.0
852.59,1422.0
854.42,1253.0
856.24,1268.0
858.07,1378.0
859.89,1299.0
861.72,1393.0
863.54,1276.0
865.36,1246.0
867.18,1359.0
869.0,1188.0
870.82,1200.0
872.64,1149.0
874.45,1166.0
876.27,1184.0
878.08,1147.0
879.9,1073.0
881.71,1162.0
883.52,1192.0
885.33,1170.0
887.14,1215.0
888.95,1135.0
890.76,1272.0
892.57,1219.0
894.37,1261.0
896.18,1385.0
897.98,1424.0
899.79,1544.0
901.59,1766.0
903.39,1785.0
905.19,1871.0
906.99,1921.0
908.79,1731.0
910.58,1572.0
912.38,1405.0
914.18,851.0
915.97,1090.0
917.76,1040.0
919.56,961.0
921.35,965.0
923.14,907.0
924.93,858.0
926.72,771.0
928.51,736.0
930.29,789.0
932.08,619.0
933.86,752.0
935.65,846.0
937.43,866.0
939.21,964.0
940.99,915.0
942.77,934.0
944.55,1059.0
946.33,983.0
948.11,843.0
949.88,919.0
951.66,1010.0
953.43,949.0
955.21,980.0
956.98,994.0
958.75,1124.0
960.52,1344.0
962.29,1166.0
964.06,1496.0
965.82,1477.0
967.59,1496.0
969.36,1572.0
971.12,1427.0
972.88,1631.0
974.65,1750.0
976.41,1974.0
978.17,2350.0
979.93,2569.0
981.69,2973.0
983.45,3675.0
985.2,4442.0
986.96,5532.0
988.71,6899.0
990.47,8399.0
992.22,10559.0
993.97,14467.0
995.72,21900.0
997.47,34555.0
999.22,49959.0
1000.97,59076.0
1002.72,56725.0
1004.46,43371.0
1006.21,28693.0
1007.95,17344.0
1009.7,10616.0
1011.44,6780.0
1013.18,4853.0
1014.92,3809.0
1016.66,3402.0
1018.4,3478.0
1020.13,3930.0
1021.87,4845.0
1023.61,6273.0
1025.34,8583.0
1027.07,11604.0
1028.81,14248.0
1030.54,16030.0
1032.27,16146.0
1034.0,14265.0
1035.73,12049.0
1037.46,9394.0
1039.18,7058.0
1040.91,5596.0
1042.63,4515.0
1044.36,3687.0
1046.08,3254.0
1047.8,3018.0
1049.52,2694.0
1051.24,2464.0
1052.96,2466.0
1054.68,2305.0
1056.4,2415.0
1058.11,2369.0
1059.83,2341.0
1061.54,2540.0
1063.26,2397.0
1064.97,2708.0
1066.68,2658.0
1068.39,2916.0
1070.1,2981.0
1071.81,2942.0
1073.51,2976.0
1075.22,2848.0
1076.93,2761.0
1078.63,2627.0
1080.33,2437.0
1082.04,2525.0
1083.74,2495.0
1085.44,2388.0
1087.14,2358.0
1088.84,2358.0
1090.53,2377.0
1092.23,2476.0
1093.93,2494.0
1095.62,2491.0
1097.32,2422.0
1099.01,2290.0
1100.7,2282.0
1102.39,2081.0
1104.08,1883.0
1105.77,1572.0
1107.46,1481.0
1109.15,1344.0
1110.83,1238.0
1112.52,1162.0
1114.2,991.0
1115.88,881.0
1117.57,873.0
1119.25,828.0
1120.93,653.0
1122.61,564.0
1124.28,490.0
1125.96,581.0
1127.64,498.0
1129.31,474.0
1130.99,547.0
1132.66,611.0
1134.33,653.0
1136.01,702.0
1137.68,877.0
1139.35,850.0
1141.01,869.0
1142.68,1435.0
1144.35,1688.0
1146.01,2134.0
1147.68,2628.0
1149.34,3527.0
1151.01,4871.0
1152.67,6140.0
1154.33,6751.0
1155.99,6826.0
1157.65,6398.0
1159.3,5371.0
1160.96,4462.0
1162.62,3687.0
1164.27,3235.0
1165.93,3051.0
1167.58,2939.0
1169.23,3034.0
1170.88,3390.0
1172.53,3579.0
1174.18,4237.0
1175.83,5342.0
1177.48,6703.0
1179.12,8015.0
1180.77,9063.0
1182.41,9412.0
1184.06,8809.0
1185.7,8315.0
1187.34,7924.0
1188.98,7650.0
1190.62,7654.0
1192.26,7837.0
1193.9,8107.0
1195.53,8376.0
1197.17,8437.0
1198.8,8584.0
1200.44,8364.0
1202.07,8117.0
1203.7,7685.0
1205.33,7047.0
1206.96,6409.0
1208.59,5566.0
1210.22,4894.0
1211.85,4286.0
1213.47,3782.0
1215.1,3307.0
1216.72,2927.0
1218.34,2665.0
1219.96,2495.0
1221.59,2348.0
1223.21,2119.0
1224.83,2050.0
1226.44,2103.0
1228.06,1857.0
1229.68,1727.0
1231.29,1545.0
1232.91,1538.0
1234.52,1283.0
1236.13,1287.0
1237.74,1245.0
1239.35,1260.0
1240.96,1147.0
1242.57,1291.0
1244.18,1070.0
1245.78,1112.0
1247.39,1116.0
1248.99,1165.0
1250.6,1084.0
1252.2,1014.0
1253.8,1017.0
1255.4,1002.0
1257.0,980.0
1258.6,858.0
1260.2,945.0
1261.8,927.0
1263.39,974.0
1264.99,976.0
1266.58,951.0
1268.17,885.0
1269.77,851.0
1271.36,942.0
1272.95,884.0
1274.54,843.0
1276.12,904.0
1277.71,1010.0
1279.3,963.0
1280.88,964.0
1282.47,993.0
1284.05,903.0
1285.63,1014.0
1287.21,1044.0
1288.79,1140.0
1290.37,1181.0
1291.95,1219.0
1293.53,1405.0
1295.1,1369.0
1296.68,1458.0
1298.25,1549.0
1299.83,1504.0
1301.4,1610.0
1302.97,1507.0
1304.54,1731.0
1306.11,1677.0
1307.68,1750.0
1309.25,1906.0
1310.81,1735.0
1312.38,1962.0
1313.94,1946.0
1315.51,2214.0
1317.07,2233.0
1318.63,2297.0
1320.19,2381.0
1321.75,2578.0
1323.31,2611.0
1324.87,2658.0
1326.43,2790.0
1327.98,2692.0
1329.54,2798.0
1331.09,2631.0
1332.64,2510.0
1334.2,2357.0
1335.75,2179.0
1337.3,2117.0
1338.85,1883.0
1340.4,1749.0
1341.94,1614.0
1343.49,1450.0
1345.03,1439.0
1346.58,1386.0
1348.12,1295.0
1349.66,1341.0
1351.21,1092.0
1352.75,1169.0
1354.29,1143.0
1355.82,1150.0
1357.36,1124.0
1358.9,1033.0
1360.43,1074.0
1361.97,1028.0
1363.5,1084.0
1365.03,1101.0
1366.57,991.0
1368.1,1033.0
1369.63,1120.0
1371.16,1003.0
1372.68,1013.0
1374.21,975.0
1375.74,923.0
1377.26,756.0
1378.78,722.0
1380.31,501.0
1381.83,448.0
1383.35,296.0
1384.87,250.0
1386.39,258.0
1387.91,133.0
1389.42,209.0
1390.94,179.0
1392.46,133.0
1393.97,178.0
1395.48,159.0
1397.0,61.0
1398.51,133.0
1400.02,167.0
1401.53,178.0
1403.04,-45.0
1404.54,152.0
1406.05,114.0
1407.55,104.0
1409.06,31.0
1410.56,118.0
1412.06,41.0
1413.57,86.0
1415.07,148.0
1416.57,87.0
1418.07,-31.0
1419.56,-45.0
1421.06,9.0
1422.56,4.0
1424.05,72.0
1425.54,53.0
1427.04,72.0
1428.53,277.0
1430.02,137.0
1431.51,313.0
1433.0,460.0
1434.49,676.0
1435.97,797.0
1437.46,1059.0
1438.94,1279.0
1440.43,1489.0
1441.91,1739.0
1443.39,2001.0
1444.88,2191.0
1446.36,2453.0
1447.83,2666.0
1449.31,2772.0
1450.79,2764.0
1452.27,2514.0
1453.74,2430.0
1455.22,1989.0
1456.69,1682.0
1458.16,1203.0
1459.63,847.0
1461.1,593.0
1462.57,353.0
1464.04,148.0
1465.51,164.0
1466.98,171.0
1468.44,122.0
1469.91,-8.0
1471.37,57.0
1472.83,-4.0
1474.3,-34.0
1475.76,8.0
1477.22,-126.0
1478.67,-26.0
1480.13,4.0
1481.59,-65.0
1483.05,-3.0
1484.5,-65.0
1485.95,-72.0
1487.41,23.0
1488.86,-113.0
1490.31,155.0
1491.76,156.0
1493.21,144.0
1494.66,262.0
1496.11,247.0
1497.55,80.0
1499.0,159.0
1500.44,137.0
1501.88,84.0
1503.33,-22.0
1504.77,-107.0
1506.21,-99.0
1507.65,-102.0
1509.09,-57.0
1510.52,-42.0
1511.96,-88.0
1513.4,-98.0
1514.83,-83.0
1516.26,-149.0
1517.7,-49.0
1519.13,-23.0
1520.56,-76.0
1521.99,-53.0
1523.42,-123.0
1524.85,-57.0
1526.27,-200.0
1527.7,-91.0
1529.12,-28.0
1530.55,-133.0
1531.97,-91.0
1533.39,-142.0
1534.81,-15.0
1536.23,-8.0
1537.65,-102.0
1539.07,-72.0
1540.49,-34.0
1541.9,-15.0
1543.32,-175.0
1544.73,-97.0
1546.15,-80.0
1547.56,-38.0
1548.97,-61.0
1550.38,-101.0
1551.79,-57.0
1553.2,37.0
1554.61,0.0
1556.01,68.0
1557.42,27.0
1558.82,80.0
1560.22,38.0
1561.63,151.0
1563.03,110.0
1564.43,179.0
1565.83,227.0
1567.23,106.0
1568.63,391.0
1570.02,335.0
1571.42,429.0
1572.81,608.0
1574.21,767.0
1575.6,912.0
1576.99,1272.0
1578.38,1800.0
1579.77,2529.0
1581.16,3170.0
1582.55,3776.0
1583.94,4119.0
1585.32,3633.0
1586.71,3110.0
1588.09,2607.0
1589.47,2024.0
1590.86,2123.0
1592.24,2203.0
1593.62,2612.0
1595.0,3125.0
1596.38,4051.0
1597.75,4906.0
1599.13,6519.0
1600.51,7807.0
1601.88,8380.0
1603.25,8539.0
1604.63,7821.0
1606.0,6783.0
1607.37,5395.0
1608.74,4043.0
1610.11,3037.0
1611.47,2270.0
1612.84,1530.0
1614.21,1116.0
1615.57,1018.0
1616.93,836.0
1618.3,478.0
1619.66,490.0
1621.02,505.0
1622.38,372.0
1623.74,217.0
1625.1,152.0
1626.45,296.0
1627.81,158.0
1629.16,231.0
1630.52,82.0
1631.87,132.0
1633.22,34.0
1634.57,12.0
1635.92,-19.0
1637.27,-80.0
1638.62,-212.0
1639.97,-91.0
1641.32,-137.0
1642.66,-95.0
1644.01,-23.0
1645.35,-160.0
1646.69,-50.0
1648.03,-132.0
1649.37,-171.0
1650.71,-171.0
1652.05,-258.0
1653.39,-224.0
1654.73,-205.0
1656.06,-152.0
1657.4,-201.0
1658.73,-122.0
1660.06,-273.0
1661.39,-152.0
1662.72,-281.0
1664.05,-186.0
1665.38,-296.0
1666.71,-201.0
1668.04,-68.0
1669.36,-133.0
1670.69,-303.0
1672.01,-190.0
1673.34,-212.0
1674.66,-155.0
1675.98,-133.0
1677.3,-296.0
1678.62,-136.0
1679.94,-182.0
1681.25,-205.0
1682.57,-197.0
1683.88,-251.0
1685.2,-145.0
1686.51,-259.0
1687.82,-220.0
1689.14,-91.0
1690.45,-327.0
1691.76,-205.0
1693.06,-254.0
1694.37,-226.0
1695.68,-205.0
1696.98,-317.0
1698.29,-406.0
1699.59,-254.0
1700.89,-232.0
1702.2,-258.0
1703.5,-335.0
1704.8,-224.0
1706.1,-307.0
1707.39,-304.0
1708.69,-376.0
1709.99,-159.0
1711.28,-281.0
1712.57,-296.0
1713.87,-382.0
1715.16,-300.0
1716.45,-243.0
1717.74,-258.0
1719.03,-338.0
1720.32,-410.0
1721.6,-284.0
1722.89,-388.0
1724.18,-262.0
1725.46,-228.0
1726.74,-289.0
1728.03,-342.0
1729.31,-277.0
1730.59,-360.0
1731.87,-281.0
1733.15,-277.0
1734.42,-205.0
1735.7,-310.0
1736.97,-361.0
1738.25,-359.0
1739.52,-285.0
1740.79,-330.0
1742.07,-327.0
1743.34,-365.0
1744.61,-274.0
1745.88,-273.0
1747.14,-277.0
1748.41,-311.0
1749.68,-323.0
1750.94,-411.0
1752.2,-296.0
1753.47,-353.0
1754.73,-224.0
1755.99,-250.0
1757.25,-293.0
1758.51,-273.0
1759.77,-414.0
1761.02,-254.0
1762.28,-444.0
1763.54,-330.0
1764.79,-380.0
1766.04,-307.0
1767.29,-278.0
1768.55,-353.0
1769.8,-308.0
1771.05,-414.0
1772.29,-277.0
1773.54,-323.0
1774.79,-346.0
1776.03,-412.0
1777.28,-452.0
1778.52,-399.0
1779.76,-262.0
1781.01,-391.0
1782.25,-277.0
1783.49,-269.0
1784.72,-422.0
1785.96,-364.0
1787.2,-340.0
1788.43,-292.0
1789.67,-443.0
1790.9,-376.0
1792.14,-359.0
1793.37,-456.0
1794.6,-433.0
1795.83,-410.0
1797.06,-325.0
1798.28,-315.0
1799.51,-357.0
1800.74,-383.0
1801.96,-353.0
1803.19,-330.0
1804.41,-318.0
1805.63,-486.0
1806.85,-437.0
1808.07,-361.0
1809.29,-421.0
1810.51,-345.0
1811.73,-342.0
1812.94,-201.0
1814.16,-379.0
1815.37,-284.0
1816.59,-312.0
1817.8,-410.0
1819.01,-383.0
1820.22,-323.0
1821.43,-399.0
1822.64,-375.0
1823.85,-360.0
1825.05,-302.0
1826.26,-364.0
1827.46,-374.0
1828.67,-304.0
1829.87,-353.0
1831.07,-357.0
1832.27,-403.0
1833.47,-334.0
1834.67,-395.0
1835.87,-334.0
1837.07,-372.0
1838.26,-437.0
1839.46,-469.0
1840.65,-418.0
1841.85,-375.0
1843.04,-437.0
1844.23,-512.0
1845.42,-421.0
1846.61,-422.0
1847.8,-432.0
1848.98,-414.0
1850.17,-300.0
1851.35,-475.0
1852.54,-395.0
1853.72,-452.0
1854.9,-406.0
1856.09,-516.0
1857.27,-456.0
1858.45,-346.0
1859.62,-406.0
1860.8,-429.0
1861.98,-520.0
1863.15,-394.0
1864.33,-402.0
1865.5,-435.0
1866.68,-338.0
1867.85,-410.0
1869.02,-372.0
1870.19,-573.0
1871.36,-383.0
1872.52,-353.0
1873.69,-338.0
1874.86,-376.0
1876.02,-448.0
1877.19,-347.0
1878.35,-304.0
1879.51,-357.0
1880.67,-433.0
1881.83,-380.0
1882.99,-421.0
1884.15,-307.0
1885.31,-330.0
1886.46,-366.0
1887.62,-452.0
1888.77,-351.0
1889.92,-243.0
1891.08,-262.0
1892.23,-545.0
1893.38,-327.0