File: mAb_degraded_wasatch_plastic/80% Raw + 20% Graded Sample, 200mW, 3000 ms_data.csv
Wavenumber,Intensities
282.29,1762.0
284.39,1739.0
286.49,1667.0
288.59,1583.0
290.7,1530.0
292.79,1517.0
294.89,1496.0
296.99,1336.0
299.09,1287.0
301.18,1355.0
303.28,1276.0
305.37,1219.0
307.47,1227.0
309.56,1234.0
311.65,1257.0
313.74,1314.0
315.83,1352.0
317.92,1260.0
320.0,1257.0
322.09,1352.0
324.18,1401.0
326.26,1294.0
328.34,1394.0
330.43,1329.0
332.51,1378.0
334.59,1401.0
336.67,1363.0
338.75,1375.0
340.83,1352.0
342.9,1272.0
344.98,1303.0
347.05,1344.0
349.13,1249.0
351.2,1207.0
353.27,1215.0
355.35,1202.0
357.42,1226.0
359.49,1173.0
361.55,1117.0
363.62,1204.0
365.69,1219.0
367.75,1279.0
369.82,1226.0
371.88,1280.0
373.95,1318.0
376.01,1420.0
378.07,1443.0
380.13,1515.0
382.19,1641.0
384.25,1667.0
386.31,1712.0
388.36,1684.0
390.42,1880.0
392.47,1796.0
394.53,1910.0
396.58,1933.0
398.63,1932.0
400.68,2164.0
402.73,2251.0
404.78,2328.0
406.83,2362.0
408.87,2267.0
410.92,2221.0
412.97,2037.0
415.01,2008.0
417.05,1846.0
419.1,1890.0
421.14,1690.0
423.18,1625.0
425.22,1580.0
427.25,1507.0
429.29,1515.0
431.33,1477.0
433.36,1417.0
435.4,1359.0
437.43,1428.0
439.47,1401.0
441.5,1306.0
443.53,1370.0
445.56,1300.0
447.59,1184.0
449.62,1245.0
451.64,1142.0
453.67,1103.0
455.7,1059.0
457.72,987.0
459.74,942.0
461.77,1021.0
463.79,917.0
465.81,832.0
467.83,915.0
469.85,900.0
471.86,934.0
473.88,877.0
475.9,839.0
477.91,862.0
479.93,854.0
481.94,840.0
483.95,832.0
485.96,881.0
487.97,831.0
489.98,915.0
491.99,854.0
494.0,748.0
496.0,764.0
498.01,877.0
500.01,812.0
502.02,752.0
504.02,786.0
506.02,820.0
508.02,860.0
510.02,755.0
512.02,756.0
514.02,855.0
516.01,710.0
518.01,779.0
520.01,878.0
522.0,741.0
523.99,862.0
525.99,904.0
527.98,896.0
529.97,953.0
531.96,1075.0
533.94,1155.0
535.93,1223.0
537.92,1245.0
539.9,1257.0
541.89,1280.0
543.87,1249.0
545.85,1280.0
547.84,1215.0
549.82,1245.0
551.8,1154.0
553.78,1127.0
555.75,1160.0
557.73,1112.0
559.71,1054.0
561.68,1029.0
563.66,1029.0
565.63,965.0
567.6,1075.0
569.57,1086.0
571.54,980.0
573.51,980.0
575.48,976.0
577.45,881.0
579.41,892.0
581.38,896.0
583.34,915.0
585.31,794.0
587.27,853.0
589.23,862.0
591.19,786.0
593.15,782.0
595.11,786.0
597.07,828.0
599.03,793.0
600.98,820.0
602.94,725.0
604.89,858.0
606.84,856.0
608.8,1006.0
610.75,1221.0
612.7,1515.0
614.65,2202.0
616.6,3330.0
618.54,5035.0
620.49,6280.0
622.43,5984.0
624.38,4607.0
626.32,3147.0
628.27,2100.0
630.21,1500.0
632.15,1276.0
634.09,1033.0
636.03,881.0
637.96,767.0
639.9,581.0
641.84,619.0
643.77,555.0
645.71,581.0
647.64,516.0
649.57,573.0
651.5,509.0
653.43,486.0
655.36,448.0
657.29,391.0
659.22,437.0
661.14,413.0
663.07,483.0
664.99,406.0
666.92,406.0
668.84,440.0
670.76,539.0
672.68,444.0
674.6,475.0
676.52,437.0
678.44,448.0
680.35,437.0
682.27,467.0
684.19,494.0
686.1,380.0
688.01,418.0
689.92,387.0
691.83,508.0
693.74,469.0
695.65,524.0
697.56,596.0
699.47,600.0
701.38,630.0
703.28,665.0
705.19,554.0
707.09,475.0
708.99,539.0
710.89,391.0
712.79,482.0
714.69,474.0
716.59,489.0
718.49,527.0
720.39,479.0
722.28,490.0
724.18,483.0
726.07,528.0
727.96,645.0
729.85,751.0
731.74,846.0
733.63,1070.0
735.52,1230.0
737.41,1334.0
739.3,1531.0
741.18,1572.0
743.07,1731.0
744.95,1868.0
746.84,1882.0
748.72,2024.0
750.6,2271.0
752.48,2329.0
754.36,2491.0
756.24,2476.0
758.12,2654.0
759.99,2594.0
761.87,2529.0
763.74,2424.0
765.62,2449.0
767.49,2385.0
769.36,2339.0
771.23,2115.0
773.1,2179.0
774.97,2138.0
776.84,2084.0
778.7,2192.0
780.57,2347.0
782.44,2616.0
784.3,2905.0
786.16,3290.0
788.02,3732.0
789.89,4070.0
791.75,4662.0
793.6,4940.0
795.46,5033.0
797.32,4982.0
799.18,4583.0
801.03,4109.0
802.89,3522.0
804.74,2931.0
806.59,2720.0
808.44,2289.0
810.29,2081.0
812.14,1913.0
813.99,1653.0
815.84,1549.0
817.69,1278.0
819.53,1139.0
821.38,985.0
823.22,884.0
825.06,873.0
826.9,930.0
828.75,938.0
830.59,991.0
832.42,1113.0
834.26,1154.0
836.1,1257.0
837.93,1291.0
839.77,1435.0
841.6,1519.0
843.44,1542.0
845.27,1375.0
847.1,1329.0
848.93,1192.0
850.76,1120.0
852.59,1118.0
854.42,1055.0
856.24,1074.0
858.07,1120.0
859.89,1067.0
861.72,1116.0
863.54,1045.0
865.36,1037.0
867.18,1048.0
869.0,937.0
870.82,980.0
872.64,963.0
874.45,957.0
876.27,987.0
878.08,923.0
879.9,906.0
881.71,938.0
883.52,942.0
885.33,919.0
887.14,1014.0
888.95,949.0
890.76,1040.0
892.57,979.0
894.37,1037.0
896.18,1074.0
897.98,1131.0
899.79,1187.0
901.59,1325.0
903.39,1325.0
905.19,1408.0
906.99,1439.0
908.79,1295.0
910.58,1207.0
912.38,1067.0
914.18,726.0
915.97,854.0
917.76,850.0
919.56,832.0
921.35,813.0
923.14,755.0
924.93,737.0
926.72,653.0
928.51,645.0
930.29,657.0
932.08,574.0
933.86,661.0
935.65,732.0
937.43,725.0
939.21,782.0
940.99,721.0
942.77,778.0
944.55,862.0
946.33,763.0
948.11,740.0
949.88,748.0
951.66,866.0
953.43,763.0
955.21,790.0
956.98,850.0
958.75,945.0
960.52,1010.0
962.29,911.0
964.06,1139.0
965.82,1158.0
967.59,1127.0
969.36,1162.0
971.12,1066.0
972.88,1206.0
974.65,1298.0
976.41,1443.0
978.17,1685.0
979.93,1901.0
981.69,2138.0
983.45,2578.0
985.2,3090.0
986.96,3888.0
988.71,4731.0
990.47,5813.0
992.22,7268.0
993.97,9952.0
995.72,14926.0
997.47,23730.0
999.22,34574.0
1000.97,41265.0
1002.72,39077.0
1004.46,29577.0
1006.21,19512.0
1007.95,12014.0
1009.7,7442.0
1011.44,4786.0
1013.18,3448.0
1014.92,2647.0
1016.66,2449.0
1018.4,2446.0
1020.13,2761.0
1021.87,3345.0
1023.61,4306.0
1025.34,5963.0
1027.07,7978.0
1028.81,9855.0
1030.54,10859.0
1032.27,11049.0
1034.0,9861.0
1035.73,8264.0
1037.46,6493.0
1039.18,4936.0
1040.91,3903.0
1042.63,3174.0
1044.36,2574.0
1046.08,2320.0
1047.8,2092.0
1049.52,1939.0
1051.24,1826.0
1052.96,1763.0
1054.68,1708.0
1056.4,1720.0
1058.11,1689.0
1059.83,1650.0
1061.54,1758.0
1063.26,1733.0
1064.97,1884.0
1066.68,1937.0
1068.39,2077.0
1070.1,2093.0
1071.81,2043.0
1073.51,2061.0
1075.22,2032.0
1076.93,1956.0
1078.63,1826.0
1080.33,1761.0
1082.04,1754.0
1083.74,1743.0
1085.44,1675.0
1087.14,1693.0
1088.84,1701.0
1090.53,1694.0
1092.23,1712.0
1093.93,1758.0
1095.62,1747.0
1097.32,1690.0
1099.01,1602.0
1100.7,1580.0
1102.39,1474.0
1104.08,1329.0
1105.77,1184.0
1107.46,1101.0
1109.15,991.0
1110.83,922.0
1112.52,850.0
1114.2,760.0
1115.88,748.0
1117.57,706.0
1119.25,680.0
1120.93,562.0
1122.61,500.0
1124.28,429.0
1125.96,486.0
1127.64,410.0
1129.31,417.0
1130.99,471.0
1132.66,490.0
1134.33,531.0
1136.01,600.0
1137.68,707.0
1139.35,691.0
1141.01,721.0
1142.68,1071.0
1144.35,1244.0
1146.01,1469.0
1147.68,1845.0
1149.34,2449.0
1151.01,3243.0
1152.67,4089.0
1154.33,4537.0
1155.99,4537.0
1157.65,4237.0
1159.3,3597.0
1160.96,3121.0
1162.62,2559.0
1164.27,2222.0
1165.93,2138.0
1167.58,2081.0
1169.23,2138.0
1170.88,2331.0
1172.53,2516.0
1174.18,2924.0
1175.83,3614.0
1177.48,4469.0
1179.12,5437.0
1180.77,6132.0
1182.41,6329.0
1184.06,5969.0
1185.7,5574.0
1187.34,5308.0
1188.98,5220.0
1190.62,5209.0
1192.26,5300.0
1193.9,5589.0
1195.53,5737.0
1197.17,5749.0
1198.8,5927.0
1200.44,5744.0
1202.07,5634.0
1203.7,5293.0
1205.33,4860.0
1206.96,4461.0
1208.59,3846.0
1210.22,3429.0
1211.85,3007.0
1213.47,2658.0
1215.1,2343.0
1216.72,2126.0
1218.34,1898.0
1219.96,1800.0
1221.59,1684.0
1223.21,1576.0
1224.83,1500.0
1226.44,1519.0
1228.06,1371.0
1229.68,1260.0
1231.29,1135.0
1232.91,1120.0
1234.52,1003.0
1236.13,991.0
1237.74,957.0
1239.35,1002.0
1240.96,874.0
1242.57,979.0
1244.18,862.0
1245.78,831.0
1247.39,832.0
1248.99,930.0
1250.6,827.0
1252.2,820.0
1253.8,797.0
1255.4,793.0
1257.0,759.0
1258.6,718.0
1260.2,710.0
1261.8,733.0
1263.39,701.0
1264.99,710.0
1266.58,738.0
1268.17,657.0
1269.77,676.0
1271.36,706.0
1272.95,676.0
1274.54,646.0
1276.12,726.0
1277.71,744.0
1279.3,781.0
1280.88,794.0
1282.47,761.0
1284.05,714.0
1285.63,782.0
1287.21,793.0
1288.79,805.0
1290.37,862.0
1291.95,866.0
1293.53,991.0
1295.1,955.0
1296.68,1051.0
1298.25,1074.0
1299.83,1086.0
1301.4,1162.0
1302.97,1108.0
1304.54,1242.0
1306.11,1214.0
1307.68,1253.0
1309.25,1337.0
1310.81,1226.0
1312.38,1340.0
1313.94,1338.0
1315.51,1534.0
1317.07,1519.0
1318.63,1583.0
1320.19,1656.0
1321.75,1747.0
1323.31,1775.0
1324.87,1818.0
1326.43,1868.0
1327.98,1834.0
1329.54,1887.0
1331.09,1731.0
1332.64,1743.0
1334.2,1628.0
1335.75,1507.0
1337.3,1441.0
1338.85,1287.0
1340.4,1251.0
1341.94,1109.0
1343.49,1063.0
1345.03,1017.0
1346.58,976.0
1348.12,900.0
1349.66,969.0
1351.21,804.0
1352.75,846.0
1354.29,874.0
1355.82,804.0
1357.36,802.0
1358.9,752.0
1360.43,789.0
1361.97,748.0
1363.5,784.0
1365.03,809.0
1366.57,744.0
1368.1,764.0
1369.63,831.0
1371.16,760.0
1372.68,751.0
1374.21,767.0
1375.74,676.0
1377.26,596.0
1378.78,549.0
1380.31,414.0
1381.83,388.0
1383.35,284.0
1384.87,277.0
1386.39,250.0
1387.91,186.0
1389.42,217.0
1390.94,205.0
1392.46,183.0
1393.97,190.0
1395.48,231.0
1397.0,125.0
1398.51,156.0
1400.02,205.0
1401.53,212.0
1403.04,72.0
1404.54,152.0
1406.05,186.0
1407.55,127.0
1409.06,99.0
1410.56,182.0
1412.06,121.0
1413.57,135.0
1415.07,163.0
1416.57,144.0
1418.07,42.0
1419.56,65.0
1421.06,87.0
1422.56,111.0
1424.05,129.0
1425.54,133.0
1427.04,144.0
1428.53,269.0
1430.02,160.0
1431.51,274.0
1433.0,414.0
1434.49,513.0
1435.97,619.0
1437.46,721.0
1438.94,896.0
1440.43,999.0
1441.91,1185.0
1443.39,1337.0
1444.88,1511.0
1446.36,1670.0
1447.83,1766.0
1449.31,1872.0
1450.79,1872.0
1452.27,1720.0
1453.74,1625.0
1455.22,1287.0
1456.69,1142.0
1458.16,858.0
1459.63,592.0
1461.1,452.0
1462.57,304.0
1464.04,179.0
1465.51,179.0
1466.98,216.0
1468.44,167.0
1469.91,106.0
1471.37,118.0
1472.83,114.0
1474.3,42.0
1475.76,84.0
1477.22,-23.0
1478.67,61.0
1480.13,72.0
1481.59,8.0
1483.05,99.0
1484.5,8.0
1485.95,38.0
1487.41,91.0
1488.86,-3.0
1490.31,152.0
1491.76,183.0
1493.21,156.0
1494.66,255.0
1496.11,183.0
1497.55,95.0
1499.0,152.0
1500.44,175.0
1501.88,145.0
1503.33,34.0
1504.77,-4.0
1506.21,3.0
1507.65,19.0
1509.09,4.0
1510.52,34.0
1511.96,26.0
1513.4,15.0
1514.83,27.0
1516.26,-65.0
1517.7,34.0
1519.13,60.0
1520.56,12.0
1521.99,0.0
1523.42,19.0
1524.85,15.0
1526.27,-57.0
1527.7,31.0
1529.12,53.0
1530.55,-53.0
1531.97,19.0
1533.39,-55.0
1534.81,61.0
1536.23,64.0
1537.65,-7.0
1539.07,26.0
1540.49,83.0
1541.9,65.0
1543.32,-23.0
1544.73,32.0
1546.15,19.0
1547.56,27.0
1548.97,38.0
1550.38,17.0
1551.79,57.0
1553.2,91.0
1554.61,99.0
1556.01,113.0
1557.42,80.0
1558.82,106.0
1560.22,107.0
1561.63,151.0
1563.03,125.0
1564.43,194.0
1565.83,220.0
1567.23,103.0
1568.63,319.0
1570.02,297.0
1571.42,368.0
1572.81,437.0
1574.21,513.0
1575.6,608.0
1576.99,869.0
1578.38,1272.0
1579.77,1705.0
1581.16,2065.0
1582.55,2458.0
1583.94,2639.0
1585.32,2399.0
1586.71,2032.0
1588.09,1684.0
1589.47,1344.0
1590.86,1337.0
1592.24,1455.0
1593.62,1701.0
1595.0,2058.0
1596.38,2650.0
1597.75,3228.0
1599.13,4144.0
1600.51,4974.0
1601.88,5338.0
1603.25,5532.0
1604.63,5057.0
1606.0,4323.0
1607.37,3591.0
1608.74,2638.0
1610.11,1997.0
1611.47,1515.0
1612.84,1052.0
1614.21,809.0
1615.57,741.0
1616.93,615.0
1618.3,402.0
1619.66,422.0
1621.02,391.0
1622.38,338.0
1623.74,259.0
1625.1,197.0
1626.45,262.0
1627.81,237.0
1629.16,277.0
1630.52,192.0
1631.87,193.0
1633.22,167.0
1634.57,88.0
1635.92,110.0
1637.27,61.0
1638.62,-30.0
1639.97,26.0
1641.32,8.0
1642.66,76.0
1644.01,136.0
1645.35,15.0
1646.69,68.0
1648.03,42.0
1649.37,-4.0
1650.71,-27.0
1652.05,-57.0
1653.39,-30.0
1654.73,-4.0
1656.06,19.0
1657.4,0.0
1658.73,30.0
1660.06,-68.0
1661.39,-4.0
1662.72,-53.0
1664.05,4.0
1665.38,-42.0
1666.71,-19.0
1668.04,69.0
1669.36,31.0
1670.69,-98.0
1672.01,-50.0
1673.34,-68.0
1674.66,19.0
1675.98,0.0
1677.3,-95.0
1678.62,-15.0
1679.94,-45.0
1681.25,-27.0
1682.57,-38.0
1683.88,-69.0
1685.2,-31.0
1686.51,-80.0
1687.82,-49.0
1689.14,11.0
1690.45,-137.0
1691.76,-61.0
1693.06,-95.0
1694.37,-75.0
1695.68,-49.0
1696.98,-108.0
1698.29,-194.0
1699.59,-113.0
1700.89,-103.0
1702.2,-121.0
1703.5,-183.0
1704.8,-76.0
1706.1,-136.0
1707.39,-129.0
1708.69,-152.0
1709.99,-34.0
1711.28,-129.0
1712.57,-152.0
1713.87,-209.0
1715.16,-156.0
1716.45,-118.0
1717.74,-129.0
1719.03,-175.0
1720.32,-220.0
1721.6,-125.0
1722.89,-190.0
1724.18,-103.0
1725.46,-106.0
1726.74,-156.0
1728.03,-157.0
1729.31,-103.0
1730.59,-178.0
1731.87,-159.0
1733.15,-148.0
1734.42,-91.0
1735.7,-143.0
1736.97,-198.0
1738.25,-176.0
1739.52,-125.0
1740.79,-141.0
1742.07,-194.0
1743.34,-167.0
1744.61,-126.0
1745.88,-122.0
1747.14,-148.0
1748.41,-178.0
1749.68,-183.0
1750.94,-240.0
1752.2,-156.0
1753.47,-186.0
1754.73,-121.0
1755.99,-114.0
1757.25,-171.0
1758.51,-136.0
1759.77,-239.0
1761.02,-152.0
1762.28,-243.0
1763.54,-186.0
1764.79,-190.0
1766.04,-152.0
1767.29,-141.0
1768.55,-205.0
1769.8,-171.0
1771.05,-220.0
1772.29,-174.0
1773.54,-156.0
1774.79,-205.0
1776.03,-206.0
1777.28,-254.0
1778.52,-228.0
1779.76,-160.0
1781.01,-231.0
1782.25,-133.0
1783.49,-133.0
1784.72,-258.0
1785.96,-178.0
1787.2,-195.0
1788.43,-156.0
1789.67,-275.0
1790.9,-216.0
1792.14,-237.0
1793.37,-281.0
1794.6,-243.0
1795.83,-217.0
1797.06,-165.0
1798.28,-178.0
1799.51,-198.0
1800.74,-220.0
1801.96,-209.0
1803.19,-182.0
1804.41,-193.0
1805.63,-296.0
1806.85,-270.0
1808.07,-205.0
1809.29,-235.0
1810.51,-224.0
1811.73,-190.0
1812.94,-114.0
1814.16,-250.0
1815.37,-163.0
1816.59,-202.0
1817.8,-216.0
1819.01,-216.0
1820.22,-186.0
1821.43,-235.0
1822.64,-197.0
1823.85,-209.0
1825.05,-177.0
1826.26,-205.0
1827.46,-204.0
1828.67,-159.0
1829.87,-201.0
1831.07,-194.0
1832.27,-243.0
1833.47,-193.0
1834.67,-228.0
1835.87,-198.0
1837.07,-213.0
1838.26,-277.0
1839.46,-272.0
1840.65,-221.0
1841.85,-220.0
1843.04,-258.0
1844.23,-330.0
1845.42,-270.0
1846.61,-243.0
1847.8,-269.0
1848.98,-247.0
1850.17,-167.0
1851.35,-304.0
1852.54,-232.0
1853.72,-251.0
1854.9,-209.0
1856.09,-311.0
1857.27,-274.0
1858.45,-194.0
1859.62,-239.0
1860.8,-254.0
1861.98,-311.0
1863.15,-239.0
1864.33,-250.0
1865.5,-268.0
1866.68,-187.0
1867.85,-235.0
1869.02,-220.0
1870.19,-349.0
1871.36,-224.0
1872.52,-198.0
1873.69,-205.0
1874.86,-213.0
1876.02,-273.0
1877.19,-199.0
1878.35,-187.0
1879.51,-231.0
1880.67,-262.0
1881.83,-217.0
1882.99,-246.0
1884.15,-186.0
1885.31,-175.0
1886.46,-176.0
1887.62,-266.0
1888.77,-212.0
1889.92,-144.0
1891.08,-167.0
1892.23,-319.0
1893.38,-201.0